"word"	"subject"	"session"	"trial"	"age"	"gender"	"hand"	"origin"	"dialect"	"diploma"	"word_status"	"response"	"RT"	"stem"	"RTprev"	"transcription"	"Nphonemes"	"word_class"	"regularity"	"inflected"	"lip"	"lip.ms"	"fip"	"fip.ms"	"Nletters"	"Nstem_syllables"	"Nword_syllables"	"stressed_syll"	"initial_stress"	"final_stress"	"morph_classification"	"word_duration"	"tense"	"number"	"person"	"CELEX_form_freq"	"CELEX_lemma_freq"	"CGN_form_freq"	"CGN_lemma_freq"	"rating"	"word_unknown"	"meaning_unknown"	"affix"	"stem1"	"stem2"	"compound_type"	"CELEX_form_freq_stem1"	"CELEX_lemma_freq_stem1"	"CELEX_form_freq_stem2"	"CELEX_lemma_freq_stem2"	"X"	"one_compound"	"one_prefix"	"one_suffix"	"one_inflection"	"one_circumfix"	"fip_length"	"rcp"	"cob"	"stem_cob"	"include"	"CELEXform_freq"	"CELEXstem_freq"	"CELEXen_form_freq"	"en"	"s"	"only_suffix"	"logCELEXform_freq"	"logCELEXstem_freq"	"logCELEXen_form_freq"	"logRT"	"logRTprev"	"logword_duration"	"logtrial"	"lookup"	"decomp"	"pnlty"	"penalty"	"logSTMfreq"	"logFRMfreq"	"logSTMorFRMfreq"	"logRTprev_c"	"logword_duration_c"	"logtrial_c"	"logSTMfreq_c"	"logFRMfreq_c"	"logSTMorFRMfreq_c"	"logPLfreq"	"groups"
"15"	"luizen"	"s1"	1	15	19	"female"	"right"	"noord-brabant"	"no"	"vwo"	"word"	"correct"	924	"luis"	1360	"lLz@"	4	"nom"	"-"	"yes"	"lLz"	"0.42"	"lLz@"	"0.52"	6	"2"	2	"lL"	"yes"	"no"	"underived"	536	"present"	"plur"	"1,2"	118	16	2	2	3.89333333333	"0"	"0"	"-"	"-"	"-"	"-"	"-"	"-"	"-"	"-"	NA	0	0	0	1	0	4	"lLz"	"2.0"	"2.0"	NA	11422	890	0	1	0	"en"	9.34338414573395	6.79234442747081	0	6.82979373751242	7.21597500265147	6.28599809450886	2.77258872223978	0	1	1	1	6.79234442747081	0	9.34338414573395	0.134628131860036	0.00621111520201811	-2.56340263848034	-1.08457107242472	-3.07035847248969	2.4103612550294	0	"pl_sgDom"
"26"	"klassen"	"s1"	1	26	19	"female"	"right"	"noord-brabant"	"no"	"vwo"	"word"	"correct"	899	"klas"	1613	"klAs@"	5	"nom"	"-"	"yes"	"[end]"	"0.32"	"klAs@"	"0.42"	7	"2"	2	"klA"	"yes"	"no"	"underived"	443	"-"	"plur"	"-"	682	0	141	112	5.02666666667	"0"	"0"	"-"	"-"	"-"	"-"	"-"	"-"	"-"	"-"	NA	0	0	0	1	0	5	"klAs"	"341.0"	"1373.0"	NA	1373341341	1683	0	1	0	"en"	21.0405125431761	7.42892719480227	0	6.80239476332431	7.38647084882989	6.09582456243222	3.29583686600433	0	1	1	1	7.42892719480227	0	21.0405125431761	0.305123978038464	-0.183962416874622	-2.04015449471579	-0.44798830509326	-3.07035847248969	14.1074896524716	0	"pl_sgDom"
"40"	"schappen"	"s1"	1	40	19	"female"	"right"	"noord-brabant"	"no"	"vwo"	"word"	"correct"	1357	"schap"	956	"sxAp@"	5	"nom"	"-"	"yes"	"sxAp"	"0.4"	"sxAp@"	"0.47"	8	"2"	2	"sxA"	"yes"	"no"	"underived"	491	"-"	"plur"	"-"	36	0	14	40	4.4	"0"	"0"	"-"	"-"	"-"	"-"	"-"	"-"	"-"	"-"	NA	0	0	0	1	0	5	"sxAp"	"4.0"	"0.0"	NA	324	260	0	1	0	"en"	5.78382518232974	5.56452040732269	0	7.21376830811864	6.86380339145295	6.19847871649231	3.71357206670431	0	1	1	1	5.56452040732269	0	5.78382518232974	-0.217543479338476	-0.081308262814539	-1.62241929401581	-2.31239509257284	-3.07035847248969	-1.14919770837481	0	"pl_sgDom"
"70"	"rapen"	"s1"	1	70	19	"female"	"right"	"noord-brabant"	"no"	"vwo"	"word"	"correct"	1077	"raap"	1687	"rap@"	4	"nom"	"-"	"yes"	"[end]"	"0.45"	"rap@"	"0.52"	5	"2"	2	"ra"	"yes"	"no"	"underived"	545	"present"	"plur"	"1,2"	228	594	26	55	4.28	"0"	"0"	"-"	"-"	"-"	"-"	"-"	"-"	"-"	"-"	NA	0	0	0	1	0	4	"rap"	"32.0"	"0.0"	NA	329898	541616	0	1	0	"en"	12.7065418259905	13.2023143885662	0	6.98286275146894	7.4312996751559	6.30261897574491	4.26267987704132	0	1	1	1	13.2023143885662	0	12.7065418259905	0.349952804364473	0.0228319964380583	-1.07331148367881	5.32539888867064	-3.07035847248969	5.77351893528595	0	"pl_sgDom"
"83"	"mijnen"	"s1"	1	83	19	"female"	"right"	"noord-brabant"	"no"	"vwo"	"word"	"correct"	943	"mijn"	763	"mKn@"	4	"nom"	"-"	"yes"	"mKn"	"0.33"	"mKn@"	"0.42"	6	"2"	2	"mK"	"yes"	"no"	"underived"	437	"present"	"plur"	"1,2"	294	0	27	110	3.68	"1"	"1"	"-"	"-"	"-"	"-"	"-"	"-"	"-"	"-"	NA	0	0	0	1	0	4	"mKn"	"0.0"	"0.0"	NA	2110083	1152060	0	1	0	"en"	14.5622383150864	13.957063070225	0	6.8501261661455	6.63856778916652	6.08221891037645	4.43081679884331	0	1	1	1	13.957063070225	0	14.5622383150864	-0.442779081624909	-0.1975680689304	-0.905174561876809	6.08014757032945	-3.07035847248969	7.62921542438183	0	"pl_sgDom"
"254"	"struiken"	"s1"	1	256	19	"female"	"right"	"noord-brabant"	"no"	"vwo"	"word"	"correct"	1222	"struik"	815	"strLk@"	6	"nom"	"-"	"yes"	"[end]"	"0.56"	"strLk@"	"0.62"	8	"2"	2	"strL"	"yes"	"no"	"underived"	643	"-"	"plur"	"-"	994	0	57	90	4.62666666667	"0"	"0"	"-"	"-"	"-"	"-"	"-"	"-"	"-"	"-"	NA	0	0	0	1	0	6	"strLk"	"994.0"	"220.0"	NA	994	220	0	1	0	"en"	6.90274273715859	5.39816270151775	0	7.10906213568717	6.70441435496411	6.46769872610435	5.54907608489522	0	1	1	1	5.39816270151775	0	6.90274273715859	-0.376932515827323	0.187911746797507	0.213084724175098	-2.47875279837778	-3.07035847248969	-0.0302801535459576	0	"pl_sgDom"
"265"	"kalkoenen"	"s1"	1	267	19	"female"	"right"	"noord-brabant"	"no"	"vwo"	"word"	"correct"	952	"kalkoen"	971	"kAlkun@"	7	"nom"	"-"	"yes"	"kAlku"	"0.36"	"kAlkun@"	"0.49"	9	"3"	3	"ku"	"no"	"no"	"underived"	507	"-"	"plur"	"-"	62	0	5	24	4.02666666667	"1"	"1"	"-"	"-"	"-"	"-"	"-"	"-"	"-"	"-"	NA	0	0	0	1	0	7	"kAlkun"	"62.0"	"84.0"	NA	62	84	0	1	0	"en"	4.14313472639153	4.44265125649032	0	6.8596149036542	6.87935580446044	6.23048144757848	5.59098698051086	0	1	1	1	4.44265125649032	0	4.14313472639153	-0.201991066330991	-0.0493055317283648	0.254995619790734	-3.43426424340521	-3.07035847248969	-2.78988816431302	0	"pl_sgDom"
"318"	"lijf"	"s1"	1	320	19	"female"	"right"	"noord-brabant"	"no"	"vwo"	"word"	"correct"	963	"lijf"	1158	"lKf"	3	"nom"	"-"	"yes"	"lKv"	"0.57"	"lKf"	"0.57"	4	"1"	1	"lKf"	"yes"	"yes"	"underived"	591	"-"	"sing"	"-"	2182	2591	131	187	5.69333333333	"0"	"0"	"-"	"-"	"-"	"-"	"-"	"-"	"-"	"-"	NA	0	0	0	1	0	3	"lKf"	"2182.0"	"2182.0"	NA	2182	2182	2182	1	0	"-"	7.68845535654994	7.68845535654994	12.3202313434243	6.87109129461055	7.05531284333975	6.38350663488401	5.77144112313002	1	0	0	0	7.68845535654994	7.68845535654994	7.68845535654994	-0.0260340274516784	0.103719655577159	0.435449762409894	-0.188460143345588	4.61809688406026	0.755432465845393	7.68845535654994	"sg_plDom"
"331"	"vorken"	"s1"	1	333	19	"female"	"right"	"noord-brabant"	"no"	"vwo"	"word"	"correct"	1399	"vork"	1183	"vOrk@"	5	"nom"	"-"	"yes"	"vOrk"	"0.43"	"vOrk@"	"0.55"	6	"2"	2	"vOr"	"yes"	"no"	"underived"	573	"-"	"plur"	"-"	71	0	4	48	4.66666666667	"0"	"0"	"-"	"-"	"-"	"-"	"-"	"-"	"-"	"-"	NA	0	0	0	1	0	5	"vOrk"	"71.0"	"425.0"	NA	71	425	0	1	0	"en"	4.27666611901606	6.05443934626937	0	7.24422751560335	7.07665381544395	6.35262939631957	5.8111409929767	0	1	1	1	6.05443934626937	0	4.27666611901606	-0.0046930553474791	0.07284241701272	0.475149632256579	-1.82247615362616	-3.07035847248969	-2.6563567716885	0	"pl_sgDom"
"342"	"rivieren"	"s1"	1	345	19	"female"	"right"	"noord-brabant"	"no"	"vwo"	"word"	"correct"	863	"rivier"	937	"rivir@"	6	"nom"	"-"	"yes"	"rivi"	"0.497"	"rivir@"	"0.71"	8	"3"	3	"vi"	"no"	"no"	"underived"	727	"-"	"plur"	"-"	521	0	67	301	4.96	"0"	"0"	"-"	"-"	"-"	"-"	"-"	"-"	"-"	"-"	NA	0	0	0	1	0	6	"rivir"	"521.0"	"2174.0"	NA	49521	2174	0	1	0	"en"	10.810172294265	7.68478394352278	0	6.76157276880406	6.84374994900622	6.59030104819669	5.84643877505772	0	1	1	1	7.68478394352278	0	10.810172294265	-0.237596921785205	0.310514068889839	0.510447414337603	-0.192131556372747	-3.07035847248969	3.8771494035605	0	"pl_sgDom"
"377"	"lunch"	"s1"	1	380	19	"female"	"right"	"noord-brabant"	"no"	"vwo"	"word"	"correct"	766	"lunch"	1475	"l}nS"	4	"nom"	"-"	"yes"	"lYn"	"0.28"	"l}nS"	"0.54"	5	"1"	1	"l}nS"	"yes"	"yes"	"underived"	557	"present"	"sing"	"1,2"	525	543	52	76	5.64	"0"	"0"	"-"	"-"	"-"	"-"	"-"	"-"	"-"	"-"	NA	0	0	0	1	0	4	"l}nS"	"0.0"	"0.0"	NA	5250	5250	5250	1	0	"-"	8.56617381363786	8.56617381363786	11.51283546092	6.64248680136726	7.29709100516042	6.32435896238131	5.9427993751267	1	0	0	0	8.56617381363786	8.56617381363786	8.56617381363786	0.215744134368988	0.044571983074464	0.606808014406579	0.689258313742327	5.49581534114817	1.63315092293331	8.56617381363786	"sg_plDom"
"428"	"radijs"	"s1"	1	431	19	"female"	"right"	"noord-brabant"	"no"	"vwo"	"word"	"correct"	930	"radijs"	1004	"radKs"	5	"nom"	"-"	"yes"	"radK"	"0.47"	"radKs"	"0.71"	6	"2"	2	"dKs"	"no"	"yes"	"underived"	731	"-"	"sing"	"-"	31	48	1	8	3.58666666667	"0"	"0"	"-"	"-"	"-"	"-"	"-"	"-"	"-"	"-"	NA	0	0	0	1	0	5	"radKs"	"31.0"	"31.0"	NA	31	31	31	1	0	"-"	3.46573590279973	3.46573590279973	2.89037175789616	6.83625927727707	6.91274282049318	6.59578051396131	6.06842558824411	1	0	0	0	3.46573590279973	3.46573590279973	3.46573590279973	-0.168604050298254	0.315993534654464	0.732434227523989	-4.4111795970958	0.395377430310041	-3.46728698790482	3.46573590279973	"sg_plDom"
"469"	"ramsj"	"s1"	1	473	19	"female"	"right"	"noord-brabant"	"no"	"vwo"	"word"	"incorrect"	1290	"ramsj"	997	"rAmS"	4	"nom"	"-"	"yes"	"rAmS"	"0.56"	"rAmS"	"0.56"	5	"1"	1	"rAmS"	"yes"	"yes"	"underived"	579	"present"	"sing"	"1,2"	3	3	4	4	1.50666666667	"46"	"49"	"-"	"-"	"-"	"-"	"-"	"-"	"-"	"-"	NA	0	0	0	1	0	4	"rAmS"	"0.0"	"0.0"	NA	3	3	3	1	0	"-"	1.38629436111989	1.38629436111989	0	7.16317239084664	6.90575327631146	6.36302810354046	6.16120732169508	1	0	0	0	1.38629436111989	1.38629436111989	1.38629436111989	-0.175593594479966	0.0832411242336182	0.825215960974955	-6.49062113877564	-1.6840641113698	-5.54672852958466	1.38629436111989	"sg_plDom"
"521"	"twijg"	"s1"	1	525	19	"female"	"right"	"noord-brabant"	"no"	"vwo"	"word"	"correct"	1339	"twijg"	895	"twKx"	4	"nom"	"-"	"yes"	"twKx"	"0.58"	"twKx"	"0.58"	5	"1"	1	"twKx"	"yes"	"yes"	"underived"	603	"-"	"sing"	"-"	40	195	0	12	3	"1"	"2"	"-"	"-"	"-"	"-"	"-"	"-"	"-"	"-"	NA	0	0	0	1	0	4	"twKx"	"40.0"	"40.0"	NA	40	40	40	1	0	"-"	3.71357206670431	3.71357206670431	7.03085747611612	7.20042489294496	6.79794041297493	6.40357419793482	6.26530121273771	1	0	0	0	3.71357206670431	3.71357206670431	3.71357206670431	-0.2834064578165	0.123787218627968	0.929309852017588	-4.16334343319122	0.643213594214622	-3.21945082400024	3.71357206670431	"sg_plDom"
"547"	"riool"	"s1"	1	551	19	"female"	"right"	"noord-brabant"	"no"	"vwo"	"word"	"correct"	805	"riool"	1397	"rijol"	5	"nom"	"-"	"yes"	"rijo"	"0.387"	"rijo"	"0.387"	5	"2"	1	"jol"	"no"	"yes"	"underived"	526	"-"	"sing"	"-"	81	112	4	19	4.4	"0"	"0"	"-"	"-"	"-"	"-"	"-"	"-"	"-"	"-"	NA	0	0	0	1	0	4	"rijol"	"81.0"	"81.0"	NA	81	81	81	1	0	"-"	4.40671924726425	4.40671924726425	3.46573590279973	6.69208374250663	7.24279792279376	6.26720054854136	6.31354804627709	1	0	0	0	4.40671924726425	4.40671924726425	4.40671924726425	0.161451052002326	-0.0125864307654844	0.977556685556973	-3.47019625263128	1.33636077477457	-2.5263036434403	4.40671924726425	"sg_plDom"
"548"	"sardien"	"s1"	1	552	19	"female"	"right"	"noord-brabant"	"no"	"vwo"	"word"	"correct"	1012	"sardien"	805	"sArdin"	6	"nom"	"-"	"yes"	"[end]"	"0.6"	"sArdi"	"0.45"	7	"2"	2	"din"	"no"	"yes"	"underived"	623	"-"	"sing"	"-"	0	29	0	2	2.98666666667	"1"	"1"	"-"	"-"	"-"	"-"	"-"	"-"	"-"	"-"	NA	0	0	0	1	0	5	"sArdin"	"0.0"	"0.0"	NA	0	0	0	1	0	"-"	0	0	4.89783979995091	6.92067150424868	6.69208374250663	6.43615036836943	6.31535800152233	1	0	0	0	0	0	0	-0.389263128284802	0.156363389062581	0.979366640802213	-7.87691549989553	-3.07035847248969	-6.93302289070455	0	"sg_plDom"
"602"	"reptielen"	"s10"	1	46	23	"male"	"right"	"west-brabant"	"no"	"propedeuse"	"word"	"correct"	1136	"reptiel"	965	"rEptil@"	7	"nom"	"-"	"yes"	"rEpt"	"0.32"	"rEptil@"	"0.58"	9	"3"	3	"ti"	"no"	"no"	"underived"	596	"-"	"plur"	"-"	96	0	5	9	3.85333333333	"0"	"0"	"-"	"-"	"-"	"-"	"-"	"-"	"-"	"-"	NA	0	0	0	1	0	7	"rEptil"	"96.0"	"40.0"	NA	96	40	0	1	0	"en"	4.57471097850338	3.71357206670431	0	7.03614849375054	6.87316383421252	6.3919171133926	3.85014760171006	0	1	1	1	3.71357206670431	0	4.57471097850338	-0.208183036578912	0.112130134085755	-1.48584375901006	-4.16334343319122	-3.07035847248969	-2.35831191220117	0	"pl_sgDom"
"642"	"magazijn"	"s10"	1	86	23	"male"	"right"	"west-brabant"	"no"	"propedeuse"	"word"	"correct"	867	"magazijn"	1279	"mAGazKn"	7	"nom"	"-"	"no"	"mAxa"	"0.2"	"mAGazKn"	"0.63"	8	"3"	3	"zKn"	"no"	"yes"	"underived"	650	"-"	"sing"	"-"	231	317	26	45	4.61333333333	"0"	"0"	"-"	"-"	"-"	"-"	"-"	"-"	"-"	"-"	NA	0	0	0	0	0	7	"mAGazKn"	"231.0"	"231.0"	NA	231	231	231	1	0	"-"	5.44673737166631	5.44673737166631	4.46590811865458	6.76619171466035	7.15461535691366	6.47850964220857	4.46590811865458	1	0	0	0	5.44673737166631	5.44673737166631	5.44673737166631	0.0732684861222328	0.198722662901722	-0.870083242065538	-2.43017812822922	2.37637889917662	-1.48628551903824	5.44673737166631	"sg_plDom"
"651"	"radijs"	"s10"	1	95	23	"male"	"right"	"west-brabant"	"no"	"propedeuse"	"word"	"correct"	1070	"radijs"	1965	"radKs"	5	"nom"	"-"	"yes"	"radK"	"0.47"	"radKs"	"0.71"	6	"2"	2	"dKs"	"no"	"yes"	"underived"	731	"-"	"sing"	"-"	31	48	1	8	3.58666666667	"0"	"0"	"-"	"-"	"-"	"-"	"-"	"-"	"-"	"-"	NA	0	0	0	1	0	5	"radKs"	"31.0"	"31.0"	NA	31	31	31	1	0	"-"	3.46573590279973	3.46573590279973	2.89037175789616	6.97634807044775	7.58375630070711	6.59578051396131	4.56434819146784	1	0	0	0	3.46573590279973	3.46573590279973	3.46573590279973	0.502409429915682	0.315993534654464	-0.771643169252286	-4.4111795970958	0.395377430310041	-3.46728698790482	3.46573590279973	"sg_plDom"
"660"	"kristal"	"s10"	1	104	23	"male"	"right"	"west-brabant"	"no"	"propedeuse"	"word"	"correct"	1225	"kristal"	1281	"krIstAl"	7	"nom"	"-"	"yes"	"krIst"	"0.36"	"krIstA"	"0.457"	7	"2"	2	"tAl"	"no"	"yes"	"underived"	633	"-"	"sing"	"-"	122	219	11	28	3.90666666667	"0"	"0"	"-"	"-"	"-"	"-"	"-"	"-"	"-"	"-"	NA	0	0	0	1	0	6	"krIstAl"	"122.0"	"122.0"	NA	122	122	122	1	0	"-"	4.81218435537242	4.81218435537242	9.8777594039634	7.11151211649616	7.15617663748062	6.45204895443723	4.65396035015752	1	0	0	0	4.81218435537242	4.81218435537242	4.81218435537242	0.0748297666891853	0.172261975130379	-0.682031010562599	-3.06473114452311	1.74182588288273	-2.12083853533213	4.81218435537242	"sg_plDom"
"666"	"flanken"	"s10"	1	110	23	"male"	"right"	"west-brabant"	"no"	"propedeuse"	"word"	"correct"	1116	"flank"	1385	"flANk@"	6	"nom"	"-"	"yes"	"flAN"	"0.42"	"flANk@"	"0.57"	7	"2"	2	"flAN"	"yes"	"no"	"underived"	591	"-"	"plur"	"-"	174	0	14	33	3.22666666667	"0"	"1"	"-"	"-"	"-"	"-"	"-"	"-"	"-"	"-"	NA	0	0	0	1	0	6	"flANk"	"174.0"	"98.0"	NA	174	98	0	1	0	"en"	5.16478597392351	4.59511985013459	0	7.0184017990692	7.23417717974985	6.38350663488401	4.70953020131233	0	1	1	1	4.59511985013459	0	5.16478597392351	0.152830308958419	0.103719655577159	-0.626461159407788	-3.28179564976094	-3.07035847248969	-1.76823691678104	0	"pl_sgDom"
"722"	"lanen"	"s10"	1	167	23	"male"	"right"	"west-brabant"	"no"	"propedeuse"	"word"	"correct"	1146	"laan"	1142	"lan@"	4	"nom"	"-"	"yes"	"[end]"	"0.4"	"lan@"	"0.5"	5	"2"	2	"la"	"yes"	"no"	"underived"	524	"-"	"plur"	"-"	114	0	5	22	3.73333333333	"0"	"1"	"-"	"-"	"-"	"-"	"-"	"-"	"-"	"-"	NA	0	0	0	1	0	4	"lan"	"114.0"	"323.0"	NA	114	323	0	1	0	"en"	4.74493212836325	5.78074351579233	0	7.04490511712937	7.04141166379481	6.26339826259162	5.12396397940326	0	1	1	1	5.78074351579233	0	4.74493212836325	-0.0399352069966197	-0.0163887167152232	-0.212027381316863	-2.0961719841032	-3.07035847248969	-2.1880907623413	0	"pl_sgDom"
"736"	"pijlen"	"s10"	1	181	23	"male"	"right"	"west-brabant"	"no"	"propedeuse"	"word"	"correct"	857	"pijl"	1187	"pKl@"	4	"nom"	"-"	"yes"	"[end]"	"0.33"	"pKl@"	"0.43"	6	"2"	2	"pK"	"yes"	"no"	"underived"	446	"-"	"plur"	"-"	276	0	22	87	4.50666666667	"0"	"0"	"-"	"-"	"-"	"-"	"-"	"-"	"-"	"-"	NA	0	0	0	1	0	4	"pKl"	"276.0"	"393.0"	NA	73073276	56900393	0	1	0	"en"	18.1069732901684	17.8568128235014	0	6.75460409948796	7.08002649992259	6.10255859461357	5.2040066870768	0	1	1	1	17.8568128235014	0	18.1069732901684	-0.0013203708688394	-0.177228384693278	-0.131984673643327	9.97989732360588	-3.07035847248969	11.1739503994638	0	"pl_sgDom"
"762"	"muggen"	"s10"	1	207	23	"male"	"right"	"west-brabant"	"no"	"propedeuse"	"word"	"correct"	1580	"mug"	952	"m}G@"	4	"nom"	"-"	"yes"	"mYx"	"0.35"	"m}G"	"0.35"	6	"2"	2	"m}"	"yes"	"no"	"underived"	459	"-"	"plur"	"-"	172	0	25	70	4.88	"0"	"0"	"-"	"-"	"-"	"-"	"-"	"-"	"-"	"-"	NA	0	0	0	1	0	3	"m}G"	"172.0"	"80.0"	NA	172	80	0	1	0	"en"	5.15329159449778	4.39444915467244	0	7.36581283720947	6.8596149036542	6.13122648948314	5.33753807970132	0	1	1	1	4.39444915467244	0	5.15329159449778	-0.221731967137228	-0.148560489823706	0.00154671898119574	-3.48246634522309	-3.07035847248969	-1.77973129620677	0	"pl_sgDom"
"768"	"stuipen"	"s10"	1	213	23	"male"	"right"	"west-brabant"	"no"	"propedeuse"	"word"	"correct"	1253	"stuip"	1133	"stLp@"	5	"nom"	"-"	"yes"	"stLp"	"0.53"	"stLp@"	"0.63"	7	"2"	2	"stL"	"yes"	"no"	"underived"	652	"-"	"plur"	"-"	134	0	7	10	3.8	"0"	"0"	"-"	"-"	"-"	"-"	"-"	"-"	"-"	"-"	NA	0	0	0	1	0	5	"stLp"	"134.0"	"17.0"	NA	134	17	0	1	0	"en"	4.90527477843843	2.89037175789616	0	7.13409372119287	7.0335064842877	6.48157712927643	5.36597601502185	0	1	1	1	2.89037175789616	0	4.90527477843843	-0.0478403865037329	0.201790149969584	0.029984654301729	-4.98654374199937	-3.07035847248969	-2.02774811226612	0	"pl_sgDom"
"795"	"adressen"	"s10"	1	241	23	"male"	"right"	"west-brabant"	"no"	"propedeuse"	"word"	"correct"	899	"adres"	1477	"AdrEs@"	6	"nom"	"-"	"yes"	"adrE"	"0.37"	"AdrEs@"	"0.66"	8	"3"	3	"drE"	"no"	"no"	"underived"	676	"-"	"plur"	"-"	330	0	40	307	5.6	"0"	"0"	"-"	"-"	"-"	"-"	"-"	"-"	"-"	"-"	NA	0	0	0	1	0	6	"AdrEs"	"330.0"	"1771.0"	NA	330	1771	0	1	0	"en"	5.80211837537706	7.47986413116503	0	6.80239476332431	7.29844510150815	6.51767127291227	5.48893772615669	0	1	1	1	7.47986413116503	0	5.80211837537706	0.217098230716717	0.237884293605428	0.152946365436565	-0.397051368730505	-3.07035847248969	-1.13090451532749	0	"pl_sgDom"
"800"	"nieren"	"s10"	1	246	23	"male"	"right"	"west-brabant"	"no"	"propedeuse"	"word"	"correct"	801	"nier"	1546	"nir@"	4	"nom"	"-"	"yes"	"nir"	"0.38"	"nir@"	"0.47"	6	"2"	2	"ni"	"yes"	"no"	"underived"	490	"-"	"plur"	"-"	341	0	17	52	4.57333333333	"0"	"0"	"-"	"-"	"-"	"-"	"-"	"-"	"-"	"-"	NA	0	0	0	1	0	4	"nir"	"341.0"	"118.0"	NA	341	118	0	1	0	"en"	5.8348107370626	4.77912349311153	0	6.68710860786651	7.34407285057307	6.19644412779452	5.50938833662798	0	1	1	1	4.77912349311153	0	5.8348107370626	0.262725979781636	-0.0833428515123265	0.173396975907855	-3.097792006784	-3.07035847248969	-1.09821215364195	0	"pl_sgDom"
"828"	"azuur"	"s10"	1	274	23	"male"	"right"	"west-brabant"	"no"	"propedeuse"	"word"	"correct"	1438	"azuur"	937	"azyr"	4	"nom"	"-"	"yes"	"azy"	"0.377"	"azyr"	"0.53"	5	"2"	2	"zyr"	"no"	"yes"	"underived"	545	"-"	"sing"	"-"	19	19	1	1	2.48	"2"	"5"	"-"	"-"	"-"	"-"	"-"	"-"	"-"	"-"	NA	0	0	0	1	0	4	"azyr"	"19.0"	"19.0"	NA	19	19	19	1	0	"-"	2.99573227355399	2.99573227355399	3.13549421592915	7.27170370688737	6.84374994900622	6.30261897574491	5.61677109766657	1	0	0	0	2.99573227355399	2.99573227355399	2.99573227355399	-0.237596921785205	0.0228319964380583	0.28077973694645	-4.88118322634154	-0.0746261989356949	-3.93729061715056	2.99573227355399	"sg_plDom"
"872"	"sandalen"	"s10"	1	318	23	"male"	"right"	"west-brabant"	"no"	"propedeuse"	"word"	"correct"	1164	"sandaal"	1718	"sAndal@"	7	"nom"	"-"	"yes"	"sAnda"	"0.527"	"sAndal@"	"0.65"	8	"3"	3	"da"	"no"	"no"	"underived"	672	"-"	"plur"	"-"	249	0	16	33	4.21333333333	"0"	"0"	"-"	"-"	"-"	"-"	"-"	"-"	"-"	"-"	NA	0	0	0	1	0	7	"sAndal"	"249.0"	"24.0"	NA	249	24	0	1	0	"en"	5.52146091786225	3.2188758248682	0	7.0604763659998	7.44949800538285	6.51174532964473	5.76519110278484	0	1	1	1	3.2188758248682	0	5.52146091786225	0.368151134591419	0.231958350337881	0.429199742064722	-4.65803967502733	-3.07035847248969	-1.4115619728423	0	"pl_sgDom"
"935"	"gort"	"s10"	1	382	23	"male"	"right"	"west-brabant"	"no"	"propedeuse"	"word"	"correct"	1328	"gort"	1216	"xOrt"	4	"nom"	"-"	"yes"	"xOrt"	"0.5"	"xOrt"	"0.5"	4	"1"	1	"xOrt"	"yes"	"yes"	"underived"	518	"present"	"sing"	"2,3"	21	21	3	4	2.90666666667	"3"	"5"	"-"	"-"	"-"	"-"	"-"	"-"	"-"	"-"	NA	0	0	0	1	0	4	"xOrt"	"0.0"	"0.0"	NA	11220021	11220021	11220021	1	0	"-"	16.2332104188412	16.2332104188412	12.8997721735182	7.19218205871325	7.10414409298753	6.25190388316589	5.94803498918065	1	0	0	0	16.2332104188412	16.2332104188412	16.2332104188412	0.0227972221960968	-0.0278830961409584	0.612043628460524	8.35629491894569	13.1628519463515	9.30018752813667	16.2332104188412	"sg_plDom"
"972"	"topaas"	"s10"	1	419	23	"male"	"right"	"west-brabant"	"no"	"propedeuse"	"word"	"incorrect"	1321	"topaas"	1396	"topas"	5	"nom"	"-"	"yes"	"topa"	"0.47"	"topas"	"0.73"	6	"2"	2	"pas"	"no"	"yes"	"underived"	754	"-"	"sing"	"-"	25	33	0	1	2.01333333333	"13"	"24"	"-"	"-"	"-"	"-"	"-"	"-"	"-"	"-"	NA	0	0	0	1	0	5	"topas"	"9.0"	"9.0"	NA	916	916	916	1	0	"-"	6.82110747225646	6.82110747225646	3.36729582998647	7.18690102041163	7.24208235925696	6.62671774924902	6.04025471127741	1	0	0	0	6.82110747225646	6.82110747225646	6.82110747225646	0.160735488465532	0.346930769942178	0.704263350557292	-1.05580802763907	3.75074899976678	-0.111915418448086	6.82110747225646	"sg_plDom"
"1079"	"kalkoenen"	"s10"	1	527	23	"male"	"right"	"west-brabant"	"no"	"propedeuse"	"word"	"correct"	938	"kalkoen"	1155	"kAlkun@"	7	"nom"	"-"	"yes"	"kAlku"	"0.36"	"kAlkun@"	"0.49"	9	"3"	3	"ku"	"no"	"no"	"underived"	507	"-"	"plur"	"-"	62	0	5	24	4.02666666667	"1"	"1"	"-"	"-"	"-"	"-"	"-"	"-"	"-"	"-"	NA	0	0	0	1	0	7	"kAlkun"	"62.0"	"84.0"	NA	62	84	0	1	0	"en"	4.14313472639153	4.44265125649032	0	6.84481547920826	7.05272104923232	6.23048144757848	6.26909628370626	0	1	1	1	4.44265125649032	0	4.14313472639153	-0.0286258215591069	-0.0493055317283648	0.933104922986139	-3.43426424340521	-3.07035847248969	-2.78988816431302	0	"pl_sgDom"
"1096"	"doornen"	"s10"	1	544	23	"male"	"right"	"west-brabant"	"no"	"propedeuse"	"word"	"correct"	1658	"doorn"	1209	"dorn@"	5	"nom"	"-"	"yes"	"dorn"	"0.42"	"dorn@"	"0.51"	7	"2"	2	"dor"	"yes"	"no"	"underived"	527	"-"	"plur"	"-"	97	2	4	9	3.57333333333	"0"	"0"	"-"	"-"	"-"	"-"	"-"	"-"	"-"	"-"	NA	0	0	0	1	0	5	"dorn"	"2.0"	"306.0"	NA	952	306	0	1	0	"en"	6.8596149036542	5.7268477475872	0	7.41397029019044	7.09837563859079	6.26909628370626	6.30078579466324	0	1	1	1	5.7268477475872	0	6.8596149036542	0.0170287677993564	-0.0106906956005854	0.964794433943122	-2.15006775230833	-3.07035847248969	-0.0734079870503486	0	"pl_sgDom"
"1140"	"woerd"	"s11"	1	28	18	"male"	"right"	"noord-brabant"	"no"	"vwo"	"word"	"correct"	1412	"woerd"	1126	"wurt"	4	"nom"	"-"	"yes"	"wur"	"0.36"	"wurt"	"0.54"	5	"1"	1	"wurt"	"yes"	"yes"	"underived"	561	"-"	"sing"	"-"	88	136	0	0	2.30666666667	"11"	"18"	"-"	"-"	"-"	"-"	"-"	"-"	"-"	"-"	NA	0	0	0	1	0	4	"wurt"	"2.0"	"2.0"	NA	862	862	862	1	0	"-"	6.76041469108343	6.76041469108343	6.17586727010576	7.25347038268453	7.02731451403978	6.33150184989369	3.36729582998647	1	0	0	0	6.76041469108343	6.76041469108343	6.76041469108343	-0.0540323567516534	0.051714870586844	-1.96869553073365	-1.1165008088121	3.69005621859374	-0.172608199621123	6.76041469108343	"sg_plDom"
"1165"	"rantsoen"	"s11"	1	53	18	"male"	"right"	"noord-brabant"	"no"	"vwo"	"word"	"correct"	1148	"rantsoen"	1246	"rAntsun"	7	"nom"	"-"	"yes"	"rAnts"	"0.45"	"rAntsun"	"0.67"	8	"2"	2	"sun"	"no"	"yes"	"underived"	691	"-"	"sing"	"-"	72	147	5	6	3.16	"0"	"0"	"-"	"-"	"-"	"-"	"-"	"-"	"-"	"-"	NA	0	0	0	1	0	7	"rAntsun"	"72.0"	"72.0"	NA	72	72	72	1	0	"-"	4.29045944114839	4.29045944114839	4.33073334028633	7.04664727784876	7.12849594568004	6.53958595561767	3.98898404656427	1	0	0	0	4.29045944114839	4.29045944114839	4.29045944114839	0.0471490748886065	0.259798976310822	-1.34700731415585	-3.58645605874714	1.22010096865871	-2.64256344955616	4.29045944114839	"sg_plDom"
"1197"	"pinten"	"s11"	1	85	18	"male"	"right"	"noord-brabant"	"no"	"vwo"	"word"	"correct"	1386	"pint"	1492	"pInt@"	5	"nom"	"-"	"yes"	"pInt"	"0.3"	"pInt@"	"0.4"	6	"2"	2	"pIn"	"yes"	"no"	"underived"	418	"-"	"plur"	"-"	29	0	7	81	3.09333333333	"3"	"3"	"-"	"-"	"-"	"-"	"-"	"-"	"-"	"-"	NA	0	0	0	1	0	5	"pInt"	"29.0"	"0.0"	NA	29	9000	0	1	0	"en"	3.40119738166216	9.10509096125709	0	7.23489842031483	7.30854279753919	6.03787091992214	4.45434729625351	0	1	1	1	9.10509096125709	0	3.40119738166216	0.22719592674776	-0.241916059384709	-0.881644064466615	1.22817546136155	-3.07035847248969	-3.53182550904239	0	"pl_sgDom"
"1203"	"rangen"	"s11"	1	91	18	"male"	"right"	"noord-brabant"	"no"	"vwo"	"word"	"correct"	1905	"rang"	1635	"rAN@"	4	"nom"	"-"	"yes"	"[end]"	"0.31"	"rAN@"	"0.39"	6	"2"	2	"rA"	"yes"	"no"	"underived"	407	"-"	"plur"	"-"	192	0	6	23	3.78666666667	"3"	"3"	"-"	"-"	"-"	"-"	"-"	"-"	"-"	"-"	NA	0	0	0	1	0	4	"rAN"	"192.0"	"0.0"	NA	192	520	0	1	0	"en"	5.26269018890489	6.25575004175337	0	7.55276208421415	7.40000951716269	6.01126717440416	4.52178857704904	0	1	1	1	6.25575004175337	0	5.26269018890489	0.318662646371262	-0.268519804902685	-0.814202783671082	-1.62116545814216	-3.07035847248969	-1.67033270179966	0	"pl_sgDom"
"1276"	"sfinxen"	"s11"	1	165	18	"male"	"right"	"noord-brabant"	"no"	"vwo"	"word"	"correct"	1608	"sfinx"	1902	"sfINks@"	7	"nom"	"-"	"yes"	"sfINs"	"0.39"	"sfINks@"	"0.6"	7	"2"	2	"sfINk"	"yes"	"no"	"underived"	617	"-"	"plur"	"-"	12	0	0	9	2.21333333333	"0"	"2"	"-"	"-"	"-"	"-"	"-"	"-"	"-"	"-"	NA	0	0	0	1	0	7	"sfINks"	"12.0"	"52.0"	NA	12	52	0	1	0	"en"	2.56494935746154	3.97029191355212	0	7.38336814699238	7.55118686729615	6.42648845745769	5.11198778835654	0	1	1	1	3.97029191355212	0	2.56494935746154	0.469839996504719	0.146701478150844	-0.224003572363578	-3.90662358634341	-3.07035847248969	-4.36807353324301	0	"pl_sgDom"
"1336"	"blaas"	"s11"	1	226	18	"male"	"right"	"noord-brabant"	"no"	"vwo"	"word"	"correct"	1032	"blaas"	2365	"blas"	4	"nom"	"-"	"yes"	"blas"	"0.56"	"blas"	"0.56"	5	"1"	1	"blas"	"yes"	"yes"	"underived"	576	"present"	"sing"	"1,2"	253	223	7	28	4.78666666667	"0"	"0"	"-"	"-"	"-"	"-"	"-"	"-"	"-"	"-"	NA	0	0	0	1	0	4	"blas"	"8.0"	"8.0"	NA	27191827	27191827	27191827	1	0	"-"	17.1184270449483	17.1184270449483	18.82777949028	6.94022246911964	7.76895604453833	6.3578422665081	5.4249500174814	1	0	0	0	17.1184270449483	17.1184270449483	17.1184270449483	0.687609173746902	0.078055287201253	0.0889586567612808	9.24151154505273	14.0480685724586	10.1854041542437	17.1184270449483	"sg_plDom"
"1362"	"apen"	"s11"	1	252	18	"male"	"right"	"noord-brabant"	"no"	"vwo"	"word"	"correct"	934	"aap"	1351	"ap@"	3	"nom"	"-"	"yes"	"[end]"	"0.33"	"ap@"	"0.41"	4	"2"	2	"a"	"yes"	"no"	"underived"	426	"-"	"plur"	"-"	365	0	23	2	4.49333333333	"0"	"0"	"-"	"-"	"-"	"-"	"-"	"-"	"-"	"-"	NA	0	0	0	1	0	3	"ap"	"365.0"	"490.0"	NA	365	490	0	1	0	"en"	5.90263333340137	6.19644412779452	0	6.84054652928869	7.20934025660291	6.05678401322862	5.53338948872752	0	1	1	1	6.19644412779452	0	5.90263333340137	0.12799338581148	-0.223002966078222	0.197398128007398	-1.68047137210101	-3.07035847248969	-1.03038955730318	0	"pl_sgDom"
"1386"	"muggen"	"s11"	1	276	18	"male"	"right"	"noord-brabant"	"no"	"vwo"	"word"	"correct"	1623	"mug"	2332	"m}G@"	4	"nom"	"-"	"yes"	"mYx"	"0.35"	"m}G"	"0.35"	6	"2"	2	"m}"	"yes"	"no"	"underived"	459	"-"	"plur"	"-"	172	0	25	70	4.88	"0"	"0"	"-"	"-"	"-"	"-"	"-"	"-"	"-"	"-"	NA	0	0	0	1	0	3	"m}G"	"172.0"	"80.0"	NA	172	80	0	1	0	"en"	5.15329159449778	4.39444915467244	0	7.39264752072162	7.75491027202143	6.13122648948314	5.62401750618734	0	1	1	1	4.39444915467244	0	5.15329159449778	0.67356340123	-0.148560489823706	0.288026145467216	-3.48246634522309	-3.07035847248969	-1.77973129620677	0	"pl_sgDom"
"1407"	"adressen"	"s11"	1	297	18	"male"	"right"	"noord-brabant"	"no"	"vwo"	"word"	"correct"	1046	"adres"	3177	"AdrEs@"	6	"nom"	"-"	"yes"	"adrE"	"0.37"	"AdrEs@"	"0.66"	8	"3"	3	"drE"	"no"	"no"	"underived"	676	"-"	"plur"	"-"	330	0	40	307	5.6	"0"	"0"	"-"	"-"	"-"	"-"	"-"	"-"	"-"	"-"	NA	0	0	0	1	0	6	"AdrEs"	"330.0"	"1771.0"	NA	330	1771	0	1	0	"en"	5.80211837537706	7.47986413116503	0	6.95368421087054	8.06400734709666	6.51767127291227	5.6970934865054	0	1	1	1	7.47986413116503	0	5.80211837537706	0.982660476305231	0.237884293605428	0.361102125785282	-0.397051368730505	-3.07035847248969	-1.13090451532749	0	"pl_sgDom"
"1486"	"beelden"	"s11"	1	377	18	"male"	"right"	"noord-brabant"	"no"	"vwo"	"word"	"correct"	1382	"beeld"	3077	"beld@"	5	"nom"	"-"	"yes"	"bel"	"0.39"	"beld@"	"0.53"	7	"2"	2	"bel"	"yes"	"no"	"underived"	551	"-"	"plur"	"-"	1986	0	254	29	5.30666666667	"0"	"0"	"-"	"-"	"-"	"-"	"-"	"-"	"-"	"-"	NA	0	0	0	1	0	5	"beld"	"1986.0"	"6170.0"	NA	1986	6170	0	1	0	"en"	7.59438124255182	8.72761617832107	0	7.23201033166476	8.03203531439882	6.31354804627709	5.93489419561959	0	1	1	1	8.72761617832107	0	7.59438124255182	0.950688443607394	0.0337610669702482	0.598902834899466	0.850700678425536	-3.07035847248969	0.661358351847267	0	"pl_sgDom"
"1493"	"schorem"	"s11"	1	384	18	"male"	"right"	"noord-brabant"	"no"	"vwo"	"word"	"correct"	1625	"schorem"	1564	"sxor@m"	6	"nom"	"-"	"yes"	"sxor@"	"0.5"	"sxor@m"	"0.62"	7	"2"	2	"sxo"	"yes"	"no"	"underived"	638	"-"	"sing"	"-"	38	38	0	2	3.04	"0"	"2"	"-"	"-"	"-"	"-"	"-"	"-"	"-"	"-"	NA	0	0	0	1	0	6	"sxor@m"	"0.0"	"0.0"	NA	38	38	38	1	0	"-"	3.66356164612965	3.66356164612965	0	7.39387829010776	7.35564110297425	6.45990445437753	5.95324333428778	1	0	0	0	3.66356164612965	3.66356164612965	3.66356164612965	0.274294232182823	0.180117475070688	0.617251973567662	-4.21335385376589	0.593203173639961	-3.2694612445749	3.66356164612965	"sg_plDom"
"1536"	"kastelen"	"s11"	1	427	18	"male"	"right"	"noord-brabant"	"no"	"vwo"	"word"	"correct"	1960	"kasteel"	0	"kAstel@"	7	"nom"	"-"	"yes"	"kAste"	"0.537"	"kAstel@"	"0.64"	8	"3"	3	"te"	"no"	"no"	"underived"	660	"-"	"plur"	"-"	190	0	20	149	4.09333333333	"0"	"1"	"-"	"-"	"-"	"-"	"-"	"-"	"-"	"-"	NA	0	0	0	1	0	7	"kAstel"	"190.0"	"1292.0"	NA	190	1292	0	1	0	"en"	5.25227342804663	7.16472037877186	0	7.58120982619635	0	6.49375383985169	6.0591231955818	0	1	1	1	7.16472037877186	0	5.25227342804663	-7.08134687079143	0.213966860544839	0.723131834861674	-0.712195121123674	-3.07035847248969	-1.68074946265792	0	"pl_sgDom"
"1567"	"matrozen"	"s11"	1	459	18	"male"	"right"	"noord-brabant"	"no"	"vwo"	"word"	"correct"	1215	"matroos"	1090	"mAtroz@"	7	"nom"	"-"	"yes"	"mAtro"	"0.56"	"mAtroz"	"0.64"	8	"3"	3	"tro"	"no"	"no"	"underived"	761	"-"	"plur"	"-"	305	0	3	9	3.58666666667	"0"	"0"	"-"	"-"	"-"	"-"	"-"	"-"	"-"	"-"	NA	0	0	0	1	0	6	"mAtroz"	"305.0"	"289.0"	NA	305	289	0	1	0	"en"	5.72358510195238	5.66988092298052	0	7.10332206252611	6.99484998583307	6.63594655568665	6.13122648948314	0	1	1	1	5.66988092298052	0	5.72358510195238	-0.0864968849583594	0.3561595763798	0.795235128763019	-2.20703457691501	-3.07035847248969	-1.20943778875217	0	"pl_sgDom"
"1577"	"dwergen"	"s11"	1	469	18	"male"	"right"	"noord-brabant"	"no"	"vwo"	"word"	"correct"	975	"dwerg"	1813	"dwErG@"	6	"nom"	"-"	"yes"	"dwE"	"0.287"	"dwErG@"	"0.55"	7	"2"	2	"dwEr"	"yes"	"no"	"underived"	573	"-"	"plur"	"-"	133	0	3	7	3.97333333333	"0"	"0"	"-"	"-"	"-"	"-"	"-"	"-"	"-"	"-"	NA	0	0	0	1	0	6	"dwErG"	"133.0"	"156.0"	NA	133	156	0	1	0	"en"	4.89783979995091	5.05624580534831	0	6.88346258641309	7.50328963067508	6.35262939631957	6.1527326947041	0	1	1	1	5.05624580534831	0	4.89783979995091	0.421942759883652	0.07284241701272	0.816741333983982	-2.82066969454722	-3.07035847248969	-2.03518309075364	0	"pl_sgDom"
"1727"	"kastelen"	"s12"	1	59	18	"male"	"right"	"noord-brabant,-oss"	"no"	"vwo"	"word"	"correct"	1184	"kasteel"	1068	"kAstel@"	7	"nom"	"-"	"yes"	"kAste"	"0.537"	"kAstel@"	"0.64"	8	"3"	3	"te"	"no"	"no"	"underived"	660	"-"	"plur"	"-"	190	0	20	149	4.09333333333	"0"	"1"	"-"	"-"	"-"	"-"	"-"	"-"	"-"	"-"	NA	0	0	0	1	0	7	"kAstel"	"190.0"	"1292.0"	NA	190	1292	0	1	0	"en"	5.25227342804663	7.16472037877186	0	7.07749805356923	6.97447891102505	6.49375383985169	4.0943445622221	0	1	1	1	7.16472037877186	0	5.25227342804663	-0.106867959766385	0.213966860544839	-1.24164679849802	-0.712195121123674	-3.07035847248969	-1.68074946265792	0	"pl_sgDom"
"1752"	"barbaren"	"s12"	1	84	18	"male"	"right"	"noord-brabant,-oss"	"no"	"vwo"	"word"	"correct"	906	"barbaar"	1499	"bArbar@"	7	"nom"	"-"	"yes"	"bArba"	"0.427"	"bArbar@"	"0.58"	8	"3"	3	"ba"	"no"	"no"	"underived"	601	"-"	"plur"	"-"	175	0	4	5	3.33333333333	"0"	"0"	"-"	"-"	"-"	"-"	"-"	"-"	"-"	"-"	NA	0	0	0	1	0	7	"bArbar"	"175.0"	"53.0"	NA	175	53	0	1	0	"en"	5.17048399503815	3.98898404656427	0	6.81014245011514	7.3132203870903	6.40025744530882	4.44265125649032	0	1	1	1	3.98898404656427	0	5.17048399503815	0.231873516298871	0.120470466001974	-0.893340104229805	-3.88793145333126	-3.07035847248969	-1.7625388956664	0	"pl_sgDom"
"1813"	"lunch"	"s12"	1	146	18	"male"	"right"	"noord-brabant,-oss"	"no"	"vwo"	"word"	"correct"	803	"lunch"	2345	"l}nS"	4	"nom"	"-"	"yes"	"lYn"	"0.28"	"l}nS"	"0.54"	5	"1"	1	"l}nS"	"yes"	"yes"	"underived"	557	"present"	"sing"	"1,2"	525	543	52	76	5.64	"0"	"0"	"-"	"-"	"-"	"-"	"-"	"-"	"-"	"-"	NA	0	0	0	1	0	4	"l}nS"	"0.0"	"0.0"	NA	5250	5250	5250	1	0	"-"	8.56617381363786	8.56617381363786	11.51283546092	6.68959926917897	7.76046702921342	6.32435896238131	4.99043258677874	1	0	0	0	8.56617381363786	8.56617381363786	8.56617381363786	0.67912015842199	0.044571983074464	-0.345558773941386	0.689258313742327	5.49581534114817	1.63315092293331	8.56617381363786	"sg_plDom"
"1878"	"gort"	"s12"	1	211	18	"male"	"right"	"noord-brabant,-oss"	"no"	"vwo"	"word"	"correct"	1115	"gort"	1114	"xOrt"	4	"nom"	"-"	"yes"	"xOrt"	"0.5"	"xOrt"	"0.5"	4	"1"	1	"xOrt"	"yes"	"yes"	"underived"	518	"present"	"sing"	"2,3"	21	21	3	4	2.90666666667	"3"	"5"	"-"	"-"	"-"	"-"	"-"	"-"	"-"	"-"	NA	0	0	0	1	0	4	"xOrt"	"0.0"	"0.0"	NA	11220021	11220021	11220021	1	0	"-"	16.2332104188412	16.2332104188412	12.8997721735182	7.01750614294126	7.01660968389422	6.25190388316589	5.35658627467201	1	0	0	0	16.2332104188412	16.2332104188412	16.2332104188412	-0.0647371868972106	-0.0278830961409584	0.0205949139518902	8.35629491894569	13.1628519463515	9.30018752813667	16.2332104188412	"sg_plDom"
"1896"	"strotten"	"s12"	1	230	18	"male"	"right"	"noord-brabant,-oss"	"no"	"vwo"	"word"	"incorrect"	1427	"strot"	996	"strOt@"	6	"nom"	"-"	"yes"	"strOt"	"0.43"	"strOt@"	"0.5"	8	"2"	2	"strO"	"yes"	"no"	"underived"	519	"-"	"plur"	"-"	4	0	0	0	2.81333333333	"3"	"5"	"-"	"-"	"-"	"-"	"-"	"-"	"-"	"-"	NA	0	0	0	1	0	6	"strOt"	"4.0"	"186.0"	NA	4	186	0	1	0	"en"	1.6094379124341	5.23110861685459	0	7.26403014289953	6.90475076996184	6.25382881157547	5.44241771052179	0	1	1	1	5.23110861685459	0	1.6094379124341	-0.176596100829592	-0.0259581677313738	0.106426349801671	-2.64580688304094	-3.07035847248969	-5.32358497827045	0	"pl_sgDom"
"1898"	"spijlen"	"s12"	1	232	18	"male"	"right"	"noord-brabant,-oss"	"no"	"vwo"	"word"	"incorrect"	993	"spijl"	1014	"spKl@"	5	"nom"	"-"	"yes"	"spKl"	"0.52"	"spKl@"	"0.6"	7	"2"	2	"spK"	"yes"	"no"	"underived"	620	"-"	"plur"	"-"	144	0	5	9	3.34666666667	"2"	"3"	"-"	"-"	"-"	"-"	"-"	"-"	"-"	"-"	NA	0	0	0	1	0	5	"spKl"	"144.0"	"8.0"	NA	144	8	0	1	0	"en"	4.97673374242057	2.19722457733622	0	6.90173720665657	6.92264389147589	6.43133108193348	5.4510384535657	0	1	1	1	2.19722457733622	0	4.97673374242057	-0.158702979315542	0.151544102626632	0.115047092845578	-5.67969092255931	-3.07035847248969	-1.95628914828398	0	"pl_sgDom"
"1907"	"jurken"	"s12"	1	241	18	"male"	"right"	"noord-brabant,-oss"	"no"	"vwo"	"word"	"correct"	1217	"jurk"	1434	"j}rk@"	5	"nom"	"-"	"yes"	"jYr"	"0.25"	"j}rk@"	"0.44"	6	"2"	2	"j}r"	"yes"	"no"	"underived"	459	"-"	"plur"	"-"	226	0	11	164	4.52	"0"	"0"	"-"	"-"	"-"	"-"	"-"	"-"	"-"	"-"	NA	0	0	0	1	0	5	"j}rk"	"226.0"	"1422.0"	NA	226	1422	0	1	0	"en"	5.4249500174814	7.26052259808985	0	7.10496544826984	7.26892012819372	6.13122648948314	5.48893772615669	0	1	1	1	7.26052259808985	0	5.4249500174814	0.187573257402292	-0.148560489823706	0.152946365436565	-0.616392901805679	-3.07035847248969	-1.50807287322315	0	"pl_sgDom"
"2008"	"systemen"	"s12"	1	343	18	"male"	"right"	"noord-brabant,-oss"	"no"	"vwo"	"word"	"correct"	1582	"systeem"	1148	"sistem@"	7	"nom"	"-"	"yes"	"sist"	"0.38"	"sistem@"	"0.76"	8	"3"	3	"te"	"no"	"no"	"underived"	775	"-"	"plur"	"-"	1177	0	62	612	4.90666666667	"0"	"0"	"-"	"-"	"-"	"-"	"-"	"-"	"-"	"-"	NA	0	0	0	1	0	7	"sistem"	"1177.0"	"5830.0"	NA	1177	5830	0	1	0	"en"	7.07157336421153	8.67094379122216	0	7.36707705988101	7.04664727784876	6.65415252018322	5.8406416573734	0	1	1	1	8.67094379122216	0	7.07157336421153	-0.0346995929426743	0.374365540876372	0.504650296653276	0.794028291326624	-3.07035847248969	0.138550473506982	0	"pl_sgDom"
"2063"	"kwasten"	"s12"	1	398	18	"male"	"right"	"noord-brabant,-oss"	"no"	"vwo"	"word"	"correct"	773	"kwast"	1225	"kwAst@"	6	"nom"	"-"	"yes"	"kwAs"	"0.37"	"kwAst@"	"0.5"	7	"2"	2	"kwAs"	"yes"	"no"	"underived"	525	"-"	"plur"	"-"	53	0	3	1	4.02666666667	"0"	"0"	"-"	"-"	"-"	"-"	"-"	"-"	"-"	"-"	NA	0	0	0	1	0	6	"kwAst"	"53.0"	"149.0"	NA	53	149	0	1	0	"en"	3.98898404656427	5.01063529409626	0	6.65157187358973	7.11151211649616	6.26530121273771	5.98896141688986	0	1	1	1	5.01063529409626	0	3.98898404656427	0.030165245704727	-0.0144857665691367	0.652970056169742	-2.86628020579928	-3.07035847248969	-2.94403884414028	0	"pl_sgDom"
"2084"	"marmotten"	"s12"	1	419	18	"male"	"right"	"noord-brabant,-oss"	"no"	"vwo"	"word"	"correct"	921	"marmot"	1782	"mArmOt@"	7	"nom"	"-"	"yes"	"mArmO"	"0.29"	"mArmOt@"	"0.5"	9	"3"	3	"mO"	"no"	"no"	"underived"	521	"-"	"plur"	"-"	14	0	0	3	3.28	"0"	"0"	"-"	"-"	"-"	"-"	"-"	"-"	"-"	"-"	NA	0	0	0	1	0	7	"mArmOt"	"14.0"	"30.0"	NA	14	30	0	1	0	"en"	2.70805020110221	3.43398720448515	0	6.82654522355659	7.48605261786314	6.25766758788264	6.04025471127741	0	1	1	1	3.43398720448515	0	2.70805020110221	0.40470574707171	-0.0221193914242077	0.704263350557292	-4.44292829541039	-3.07035847248969	-4.22497268960234	0	"pl_sgDom"
"2086"	"uur"	"s12"	1	421	18	"male"	"right"	"noord-brabant,-oss"	"no"	"vwo"	"word"	"correct"	878	"uur"	1059	"yr"	2	"nom"	"-"	"yes"	"[end]"	"0.31"	"yr"	"0.31"	3	"1"	1	"yr"	"yes"	"yes"	"underived"	331	"-"	"sing"	"-"	16087	18025	3968	7736	6.46666666667	"0"	"0"	"-"	"-"	"-"	"-"	"-"	"-"	"-"	"-"	NA	0	0	0	1	0	2	"yr"	"16087.0"	"16087.0"	NA	16087	16087	16087	1	0	"-"	9.68582893145249	9.68582893145249	22.8293008129001	6.77878489768518	6.96602418710611	5.80513496891649	6.04500531403601	1	0	0	0	9.68582893145249	9.68582893145249	9.68582893145249	-0.115322683685317	-0.474652010390359	0.70901395331589	1.80891343155696	6.6154704589628	2.75280604074794	9.68582893145249	"sg_plDom"
"2166"	"rapen"	"s12"	1	502	18	"male"	"right"	"noord-brabant,-oss"	"no"	"vwo"	"word"	"correct"	1487	"raap"	943	"rap@"	4	"nom"	"-"	"yes"	"[end]"	"0.45"	"rap@"	"0.52"	5	"2"	2	"ra"	"yes"	"no"	"underived"	545	"present"	"plur"	"1,2"	228	594	26	55	4.28	"0"	"0"	"-"	"-"	"-"	"-"	"-"	"-"	"-"	"-"	NA	0	0	0	1	0	4	"rap"	"32.0"	"0.0"	NA	329898	541616	0	1	0	"en"	12.7065418259905	13.2023143885662	0	7.30518821539304	6.8501261661455	6.30261897574491	6.22059017009974	0	1	1	1	13.2023143885662	0	12.7065418259905	-0.23122070464593	0.0228319964380583	0.884598809379617	5.32539888867064	-3.07035847248969	5.77351893528595	0	"pl_sgDom"
"2214"	"reutel"	"s12"	1	550	18	"male"	"right"	"noord-brabant,-oss"	"no"	"vwo"	"word"	"incorrect"	1241	"reutel"	987	"r|t@l"	5	"nom"	"-"	"yes"	"r2t"	"0.38"	"r|t@l"	"0.55"	6	"2"	2	"r|"	"yes"	"no"	"underived"	574	"present"	"sing"	"1,2"	7	7	0	0	2.14666666667	"16"	"21"	"-"	"-"	"-"	"-"	"-"	"-"	"-"	"-"	NA	0	0	0	1	0	5	"r|t@l"	"0.0"	"7.0"	NA	700	700	700	1	0	"-"	6.55250788703459	6.55250788703459	4.35670882668959	7.12447826249342	6.89568269774787	6.35437004079735	6.31173480915291	1	0	0	0	6.55250788703459	6.55250788703459	6.55250788703459	-0.185664173043562	0.0745830614905039	0.975743448432793	-1.32440761286094	3.4821494145449	-0.38051500366996	6.55250788703459	"sg_plDom"
"2222"	"schild"	"s12"	1	558	18	"male"	"right"	"noord-brabant,-oss"	"no"	"vwo"	"word"	"correct"	931	"schild"	911	"sxIlt"	5	"nom"	"-"	"yes"	"sxIld"	"0.62"	"sxIlt"	"0.62"	6	"1"	1	"sxIlt"	"yes"	"yes"	"underived"	639	"-"	"sing"	"-"	286	286	19	26	4.12	"0"	"0"	"-"	"-"	"-"	"-"	"-"	"-"	"-"	"-"	NA	0	0	0	1	0	5	"sxIlt"	"286.0"	"286.0"	NA	28633	28633	28633	1	0	"-"	10.2623501019203	10.2623501019203	12.5949509500339	6.83733281468559	6.81563999007433	6.46146817635372	6.3261494731551	1	0	0	0	10.2623501019203	10.2623501019203	10.2623501019203	-0.265706880717099	0.181681197046871	0.990158112434977	2.38543460202474	7.19199162943059	3.32932721121572	10.2623501019203	"sg_plDom"
"2277"	"ramsj"	"s13"	1	53	18	"female"	"right"	"noord-brabant"	"no"	"vwo"	"word"	"incorrect"	1210	"ramsj"	1315	"rAmS"	4	"nom"	"-"	"yes"	"rAmS"	"0.56"	"rAmS"	"0.56"	5	"1"	1	"rAmS"	"yes"	"yes"	"underived"	579	"present"	"sing"	"1,2"	3	3	4	4	1.50666666667	"46"	"49"	"-"	"-"	"-"	"-"	"-"	"-"	"-"	"-"	NA	0	0	0	1	0	4	"rAmS"	"0.0"	"0.0"	NA	3	3	3	1	0	"-"	1.38629436111989	1.38629436111989	0	7.09920174355309	7.18235211188526	6.36302810354046	3.98898404656427	1	0	0	0	1.38629436111989	1.38629436111989	1.38629436111989	0.101005241093833	0.0832411242336182	-1.34700731415585	-6.49062113877564	-1.6840641113698	-5.54672852958466	1.38629436111989	"sg_plDom"
"2297"	"toiletten"	"s13"	1	73	18	"female"	"right"	"noord-brabant"	"no"	"vwo"	"word"	"correct"	861	"toilet"	1250	"twAlEt@"	7	"nom"	"-"	"yes"	"twA"	"0.137"	"twAlEt@"	"0.44"	9	"3"	3	"lE"	"no"	"no"	"underived"	461	"-"	"plur"	"-"	194	0	15	154	5.94666666667	"0"	"0"	"-"	"-"	"-"	"-"	"-"	"-"	"-"	"-"	NA	0	0	0	1	0	7	"twAlEt"	"194.0"	"598.0"	NA	194	598	0	1	0	"en"	5.27299955856375	6.39526159811545	0	6.75925527066369	7.13169851046691	6.13556489108174	4.30406509320417	0	1	1	1	6.39526159811545	0	5.27299955856375	0.0503516396754815	-0.144222088225108	-1.03192626751595	-1.48165390178008	-3.07035847248969	-1.6600233321408	0	"pl_sgDom"
"2360"	"troel"	"s13"	1	137	18	"female"	"right"	"noord-brabant"	"no"	"vwo"	"word"	"incorrect"	961	"troel"	928	"trul"	4	"nom"	"-"	"yes"	"trul"	"0.36"	"trul"	"0.36"	5	"1"	1	"trul"	"yes"	"yes"	"underived"	381	"-"	"sing"	"-"	4	6	0	0	2.4	"6"	"10"	"-"	"-"	"-"	"-"	"-"	"-"	"-"	"-"	NA	0	0	0	1	0	4	"trul"	"4.0"	"4.0"	NA	4	4	4	1	0	"-"	1.6094379124341	1.6094379124341	1.09861228866811	6.86901445066571	6.83410873881384	5.94542060860658	4.92725368515721	1	0	0	0	1.6094379124341	1.6094379124341	1.6094379124341	-0.247238131977592	-0.334366370700272	-0.408737675562917	-6.26747758746143	-1.46092056005559	-5.32358497827045	1.6094379124341	"sg_plDom"
"2401"	"triomfen"	"s13"	1	178	18	"female"	"right"	"noord-brabant"	"no"	"vwo"	"word"	"correct"	1231	"triomf"	1921	"trijOmf@"	8	"nom"	"-"	"yes"	"trijO"	"0.33"	"trijOmf@"	"0.68"	8	"3"	2	"jOm"	"no"	"no"	"underived"	704	"-"	"plur"	"-"	52	0	0	0	3.38666666667	"1"	"1"	"-"	"-"	"-"	"-"	"-"	"-"	"-"	"-"	NA	0	0	0	1	0	8	"trijOmf"	"52.0"	"460.0"	NA	52	460	0	1	0	"en"	3.97029191355212	6.13339804299665	0	7.11639414409346	7.56112158953024	6.55819780281227	5.18738580584075	0	1	1	1	6.13339804299665	0	3.97029191355212	0.479774718738808	0.278410823505422	-0.148605554879367	-1.74351745689888	-3.07035847248969	-2.96273097715243	0	"pl_sgDom"
"2419"	"oorden"	"s13"	1	196	18	"female"	"right"	"noord-brabant"	"no"	"vwo"	"word"	"correct"	994	"oord"	1249	"ord@"	4	"nom"	"-"	"yes"	"[end]"	"0.26"	"ord@"	"0.36"	6	"2"	2	"or"	"yes"	"no"	"underived"	379	"-"	"plur"	"-"	107	0	5	17	3.38666666667	"0"	"0"	"-"	"-"	"-"	"-"	"-"	"-"	"-"	"-"	NA	0	0	0	1	0	4	"ord"	"0.0"	"0.0"	NA	1070	2570	0	1	0	"en"	6.97634807044775	7.85205020726589	0	6.90274273715859	7.13089883029635	5.94017125272043	5.28320372873799	0	1	1	1	7.85205020726589	0	6.97634807044775	0.0495519595049165	-0.339615726586415	-0.0527876319821337	-0.0248652926296424	-3.07035847248969	0.0433251797431984	0	"pl_sgDom"
"2452"	"heren"	"s13"	1	230	18	"female"	"right"	"noord-brabant"	"no"	"vwo"	"word"	"correct"	944	"heer"	1213	"her@"	4	"nom"	"-"	"yes"	"[end]"	"0.34"	"her@"	"0.47"	5	"2"	2	"he"	"yes"	"no"	"underived"	492	"-"	"plur"	"-"	3431	0	262	1445	5.72	"0"	"0"	"-"	"-"	"-"	"-"	"-"	"-"	"-"	"-"	NA	0	0	0	1	0	4	"her"	"0.0"	"0.0"	NA	34310	47068310	0	1	0	"en"	10.4432212814493	17.6671105300057	0	6.85118492749374	7.10167597161944	6.20050917404269	5.44241771052179	0	1	1	1	17.6671105300057	0	10.4432212814493	0.0203291008280138	-0.079277805264157	0.106426349801671	9.79019503011014	-3.07035847248969	3.51019839074478	0	"pl_sgDom"
"2456"	"makrelen"	"s13"	1	234	18	"female"	"right"	"noord-brabant"	"no"	"vwo"	"word"	"correct"	1108	"makreel"	1497	"mAkrel@"	7	"nom"	"-"	"yes"	"mAkr"	"0.3"	"mAkrel@"	"0.66"	8	"3"	3	"kre"	"no"	"no"	"underived"	684	"-"	"plur"	"-"	34	0	0	0	3	"0"	"0"	"-"	"-"	"-"	"-"	"-"	"-"	"-"	"-"	NA	0	0	0	1	0	7	"mAkrel"	"34.0"	"77.0"	NA	34	77	0	1	0	"en"	3.55534806148941	4.35670882668959	0	7.01121398735037	7.31188616407716	6.52941883826223	5.45958551414416	0	1	1	1	4.35670882668959	0	3.55534806148941	0.230539293285735	0.249631858955379	0.123594153424037	-3.52020667320594	-3.07035847248969	-3.37767482921514	0	"pl_sgDom"
"2479"	"spijlen"	"s13"	1	257	18	"female"	"right"	"noord-brabant"	"no"	"vwo"	"word"	"correct"	963	"spijl"	1257	"spKl@"	5	"nom"	"-"	"yes"	"spKl"	"0.52"	"spKl@"	"0.6"	7	"2"	2	"spK"	"yes"	"no"	"underived"	620	"-"	"plur"	"-"	144	0	5	9	3.34666666667	"2"	"3"	"-"	"-"	"-"	"-"	"-"	"-"	"-"	"-"	NA	0	0	0	1	0	5	"spKl"	"144.0"	"8.0"	NA	144	8	0	1	0	"en"	4.97673374242057	2.19722457733622	0	6.87109129461055	7.13727843726039	6.43133108193348	5.55295958492162	0	1	1	1	2.19722457733622	0	4.97673374242057	0.0559315664689555	0.151544102626632	0.216968224201495	-5.67969092255931	-3.07035847248969	-1.95628914828398	0	"pl_sgDom"
"2513"	"woerd"	"s13"	1	291	18	"female"	"right"	"noord-brabant"	"no"	"vwo"	"word"	"incorrect"	1067	"woerd"	1111	"wurt"	4	"nom"	"-"	"yes"	"wur"	"0.36"	"wurt"	"0.54"	5	"1"	1	"wurt"	"yes"	"yes"	"underived"	561	"-"	"sing"	"-"	88	136	0	0	2.30666666667	"11"	"18"	"-"	"-"	"-"	"-"	"-"	"-"	"-"	"-"	NA	0	0	0	1	0	4	"wurt"	"2.0"	"2.0"	NA	862	862	862	1	0	"-"	6.76041469108343	6.76041469108343	6.17586727010576	6.97354301952014	7.01391547481053	6.33150184989369	5.67675380226828	1	0	0	0	6.76041469108343	6.76041469108343	6.76041469108343	-0.0674313959809023	0.051714870586844	0.34076244154816	-1.1165008088121	3.69005621859374	-0.172608199621123	6.76041469108343	"sg_plDom"
"2537"	"binten"	"s13"	1	315	18	"female"	"right"	"noord-brabant"	"no"	"vwo"	"word"	"incorrect"	930	"bint"	897	"bInt@"	5	"nom"	"-"	"yes"	"bInt"	"0.4"	"bInt@"	"0.47"	6	"2"	2	"bIn"	"yes"	"no"	"underived"	494	"-"	"plur"	"-"	11	0	1	1	2.17333333333	"11"	"19"	"-"	"-"	"-"	"-"	"-"	"-"	"-"	"-"	NA	0	0	0	1	0	5	"bInt"	"11.0"	"11.0"	NA	11	2727989811	0	1	0	"en"	2.484906649788	21.7268308423165	0	6.83625927727707	6.8001700683022	6.20455776256869	5.75574221358691	0	1	1	1	21.7268308423165	0	2.484906649788	-0.28117680248923	-0.0752292167381565	0.41975085286679	13.849915342421	-3.07035847248969	-4.44811624091655	0	"pl_sgDom"
"2561"	"forellen"	"s13"	1	340	18	"female"	"right"	"noord-brabant"	"no"	"vwo"	"word"	"correct"	922	"forel"	1376	"forEl@"	6	"nom"	"-"	"yes"	"fOrE"	"0.417"	"forEl@"	"0.56"	8	"3"	3	"rE"	"no"	"no"	"underived"	577	"-"	"plur"	"-"	41	0	4	4	3.29333333333	"0"	"0"	"-"	"-"	"-"	"-"	"-"	"-"	"-"	"-"	NA	0	0	0	1	0	6	"forEl"	"41.0"	"91.0"	NA	41	91	0	1	0	"en"	3.73766961828337	4.52178857704904	0	6.82762923450285	7.22766249872865	6.35957386867238	5.83188247728352	0	1	1	1	4.52178857704904	0	3.73766961828337	0.146315627937224	0.0797868893655309	0.495891116563395	-3.35512692284649	-3.07035847248969	-3.19535327242118	0	"pl_sgDom"
"2635"	"topaas"	"s13"	1	414	18	"female"	"right"	"noord-brabant"	"no"	"vwo"	"word"	"incorrect"	1101	"topaas"	786	"topas"	5	"nom"	"-"	"yes"	"topa"	"0.47"	"topas"	"0.73"	6	"2"	2	"pas"	"no"	"yes"	"underived"	754	"-"	"sing"	"-"	25	33	0	1	2.01333333333	"13"	"24"	"-"	"-"	"-"	"-"	"-"	"-"	"-"	"-"	NA	0	0	0	1	0	5	"topas"	"9.0"	"9.0"	NA	916	916	916	1	0	"-"	6.82110747225646	6.82110747225646	3.36729582998647	7.00488198971286	6.6682282484174	6.62671774924902	6.0282785202307	1	0	0	0	6.82110747225646	6.82110747225646	6.82110747225646	-0.413118622374027	0.346930769942178	0.692287159510576	-1.05580802763907	3.75074899976678	-0.111915418448086	6.82110747225646	"sg_plDom"
"2671"	"dril"	"s13"	1	451	18	"female"	"right"	"noord-brabant"	"no"	"vwo"	"word"	"correct"	1009	"dril"	946	"drIl"	4	"nom"	"-"	"yes"	"drIl"	"0.47"	"drIl"	"0.47"	4	"1"	1	"drIl"	"yes"	"yes"	"underived"	492	"present"	"sing"	"1,2"	18	18	0	0	2.94666666667	"1"	"2"	"-"	"-"	"-"	"-"	"-"	"-"	"-"	"-"	NA	0	0	0	1	0	4	"drIl"	"0.0"	"0.0"	NA	14130	14130	14130	1	0	"-"	9.55612624458275	9.55612624458275	6.56244409369372	6.9177056098353	6.85329909318608	6.20050917404269	6.11368217983223	1	0	0	0	9.55612624458275	9.55612624458275	9.55612624458275	-0.228047777605352	-0.079277805264157	0.777690819112109	1.67921074468721	6.48576777209306	2.6231033538782	9.55612624458275	"sg_plDom"
"2697"	"sardien"	"s13"	1	477	18	"female"	"right"	"noord-brabant"	"no"	"vwo"	"word"	"correct"	949	"sardien"	1244	"sArdin"	6	"nom"	"-"	"yes"	"[end]"	"0.6"	"sArdi"	"0.45"	7	"2"	2	"din"	"no"	"yes"	"underived"	623	"-"	"sing"	"-"	0	29	0	2	2.98666666667	"1"	"1"	"-"	"-"	"-"	"-"	"-"	"-"	"-"	"-"	NA	0	0	0	1	0	5	"sArdin"	"0.0"	"0.0"	NA	0	0	0	1	0	"-"	0	0	4.89783979995091	6.85646198459459	7.12689080889881	6.43615036836943	6.16961073249146	1	0	0	0	0	0	0	0.0455439381073779	0.156363389062581	0.833619371771334	-7.87691549989553	-3.07035847248969	-6.93302289070455	0	"sg_plDom"
"2716"	"violen"	"s13"	1	496	18	"female"	"right"	"noord-brabant"	"no"	"vwo"	"word"	"correct"	812	"viool"	1043	"vijol@"	6	"nom"	"-"	"yes"	"[end]"	"0.51"	"vijol@"	"0.6"	6	"3"	2	"jo"	"no"	"no"	"underived"	616	"-"	"plur"	"-"	114	0	5	47	3.98666666667	"0"	"0"	"-"	"-"	"-"	"-"	"-"	"-"	"-"	"-"	NA	0	0	0	1	0	6	"vijol"	"114.0"	"377.0"	NA	114	377	0	1	0	"en"	4.74493212836325	5.93489419561959	0	6.70073110954781	6.95081476844258	6.42486902390539	6.20859002609663	0	1	1	1	5.93489419561959	0	4.74493212836325	-0.130532102348846	0.145082044598541	0.872598665376507	-1.94202130427594	-3.07035847248969	-2.1880907623413	0	"pl_sgDom"
"2731"	"giganten"	"s13"	1	511	18	"female"	"right"	"noord-brabant"	"no"	"vwo"	"word"	"correct"	1119	"gigant"	1245	"xiGAnt@"	7	"nom"	"-"	"yes"	"xiG"	"0.33"	"xiGAnt@"	"0.71"	8	"3"	3	"GAn"	"no"	"no"	"underived"	732	"-"	"plur"	"-"	35	0	0	0	3.18666666667	"0"	"0"	"-"	"-"	"-"	"-"	"-"	"-"	"-"	"-"	NA	0	0	0	1	0	7	"xiGAnt"	"35.0"	"28.0"	NA	35	28	0	1	0	"en"	3.58351893845611	3.36729582998647	0	7.02108396428914	7.1276936993474	6.59714570188665	6.23832462503951	0	1	1	1	3.36729582998647	0	3.58351893845611	0.0463468285559685	0.317358722579804	0.902333264319386	-4.50961966990906	-3.07035847248969	-3.34950395224844	0	"pl_sgDom"
"2747"	"pin"	"s13"	1	527	18	"female"	"right"	"noord-brabant"	"no"	"vwo"	"word"	"incorrect"	1083	"pin"	1224	"pIn"	3	"nom"	"-"	"yes"	"[end]"	"0.26"	"pIn"	"0.26"	3	"1"	1	"pIn"	"yes"	"yes"	"underived"	277	"present"	"sing"	"1,2"	37	80	10	17	5.04	"0"	"0"	"-"	"-"	"-"	"-"	"-"	"-"	"-"	"-"	NA	0	0	0	1	0	3	"pIn"	"0.0"	"3.0"	NA	3700	3700	3700	1	0	"-"	8.21635833238616	8.21635833238616	8.11312710422178	6.98841318199959	7.11069612297883	5.62762111369064	6.26909628370626	1	0	0	0	8.21635833238616	8.21635833238616	8.21635833238616	0.029349252187397	-0.65216586561621	0.933104922986139	0.339442832490624	5.14599985989647	1.28333544168161	8.21635833238616	"sg_plDom"
"2791"	"sigaren"	"s14"	1	11	20	"male"	"right"	"noord-brabant"	"no"	"vwo"	"word"	"correct"	1223	"sigaar"	1679	"siGar@"	6	"nom"	"-"	"yes"	"[end]"	"0.65"	"siGar@"	"0.74"	7	"3"	3	"Ga"	"no"	"no"	"underived"	758	"-"	"plur"	"-"	305	0	33	121	4.46666666667	"0"	"0"	"-"	"-"	"-"	"-"	"-"	"-"	"-"	"-"	NA	0	0	0	1	0	6	"siGar"	"305.0"	"751.0"	NA	305	751	0	1	0	"en"	5.72358510195238	6.62273632394984	0	7.10987946307227	7.4265490723973	6.63200177739563	2.484906649788	0	1	1	1	6.62273632394984	0	5.72358510195238	0.345202201605875	0.352214798088784	-2.85108471093212	-1.25417917594569	-3.07035847248969	-1.20943778875217	0	"pl_sgDom"
"2800"	"bibber"	"s14"	1	20	20	"male"	"right"	"noord-brabant"	"no"	"vwo"	"word"	"correct"	1283	"bibber"	1606	"bIb@r"	5	"nom"	"-"	"yes"	"bIb"	"0.22"	"bIb"	"0.22"	6	"2"	2	"bI"	"yes"	"no"	"underived"	391	"present"	"sing"	"1,2"	15	9	3	2	3.97333333333	"0"	"0"	"-"	"-"	"-"	"-"	"-"	"-"	"-"	"-"	NA	0	0	0	1	0	3	"bIb@r"	"3.0"	"24.0"	NA	933	933	933	1	0	"-"	6.83947643822884	6.83947643822884	7.79358680337158	7.15773548424991	7.38212436573751	5.97126183979046	3.04452243772342	1	0	0	0	6.83947643822884	6.83947643822884	6.83947643822884	0.300777494946082	-0.308525139516385	-2.2914689229967	-1.03743906166669	3.76911796573916	-0.0935464524757075	6.83947643822884	"sg_plDom"
"2842"	"ivoor"	"s14"	1	62	20	"male"	"right"	"noord-brabant"	"no"	"vwo"	"word"	"correct"	1372	"ivoor"	2789	"ivor"	4	"nom"	"-"	"yes"	"iv"	"0.22"	"ivo"	"0.407"	5	"2"	2	"vor"	"no"	"yes"	"underived"	548	"-"	"sing"	"-"	121	121	2	3	3.37333333333	"0"	"0"	"-"	"-"	"-"	"-"	"-"	"-"	"-"	"-"	NA	0	0	0	1	0	3	"ivor"	"0.0"	"0.0"	NA	121	121	121	1	0	"-"	4.80402104473326	4.80402104473326	4.99721227376411	7.22475340576797	7.93379687481541	6.30809844150953	4.14313472639153	1	0	0	0	4.80402104473326	4.80402104473326	4.80402104473326	0.852450004023981	0.0283114622026837	-1.19285663432859	-3.07289445516227	1.73366257224357	-2.12900184597129	4.80402104473326	"sg_plDom"
"2864"	"lijf"	"s14"	1	84	20	"male"	"right"	"noord-brabant"	"no"	"vwo"	"word"	"correct"	1168	"lijf"	1907	"lKf"	3	"nom"	"-"	"yes"	"lKv"	"0.57"	"lKf"	"0.57"	4	"1"	1	"lKf"	"yes"	"yes"	"underived"	591	"-"	"sing"	"-"	2182	2591	131	187	5.69333333333	"0"	"0"	"-"	"-"	"-"	"-"	"-"	"-"	"-"	"-"	NA	0	0	0	1	0	3	"lKf"	"2182.0"	"2182.0"	NA	2182	2182	2182	1	0	"-"	7.68845535654994	7.68845535654994	12.3202313434243	7.06390396147207	7.55381085200823	6.38350663488401	4.44265125649032	1	0	0	0	7.68845535654994	7.68845535654994	7.68845535654994	0.472463981216801	0.103719655577159	-0.893340104229805	-0.188460143345588	4.61809688406026	0.755432465845393	7.68845535654994	"sg_plDom"
"2867"	"soldaten"	"s14"	1	87	20	"male"	"right"	"noord-brabant"	"no"	"vwo"	"word"	"correct"	1479	"soldaat"	1919	"sOldat@"	7	"nom"	"-"	"yes"	"sOlda"	"0.5"	"sOldat@"	"0.7"	8	"3"	3	"da"	"no"	"no"	"underived"	721	"-"	"plur"	"-"	3174	0	140	201	4.54666666667	"0"	"0"	"-"	"-"	"-"	"-"	"-"	"-"	"-"	"-"	NA	0	0	0	1	0	7	"sOldat"	"3174.0"	"1615.0"	NA	43174	1615	0	1	0	"en"	10.6730169030149	7.38770923908104	0	7.29979736675816	7.56008046502183	6.58202513889283	4.47733681447821	0	1	1	1	7.38770923908104	0	10.6730169030149	0.478733594230397	0.302238159585979	-0.858654546241915	-0.489206260814491	-3.07035847248969	3.73999401231033	0	"pl_sgDom"
"2884"	"pin"	"s14"	1	104	20	"male"	"right"	"noord-brabant"	"no"	"vwo"	"word"	"correct"	1170	"pin"	1445	"pIn"	3	"nom"	"-"	"yes"	"[end]"	"0.26"	"pIn"	"0.26"	3	"1"	1	"pIn"	"yes"	"yes"	"underived"	277	"present"	"sing"	"1,2"	37	80	10	17	5.04	"0"	"0"	"-"	"-"	"-"	"-"	"-"	"-"	"-"	"-"	NA	0	0	0	1	0	3	"pIn"	"0.0"	"3.0"	NA	3700	3700	3700	1	0	"-"	8.21635833238616	8.21635833238616	8.11312710422178	7.06561336359772	7.27655640271871	5.62762111369064	4.65396035015752	1	0	0	0	8.21635833238616	8.21635833238616	8.21635833238616	0.19520953192728	-0.65216586561621	-0.682031010562599	0.339442832490624	5.14599985989647	1.28333544168161	8.21635833238616	"sg_plDom"
"2897"	"personen"	"s14"	1	118	20	"male"	"right"	"noord-brabant"	"no"	"vwo"	"word"	"correct"	1368	"persoon"	1679	"p@rson@"	7	"nom"	"-"	"yes"	"pErso"	"0.44"	"p@rson@"	"0.63"	8	"3"	3	"so"	"no"	"no"	"underived"	650	"-"	"plur"	"-"	3556	0	144	799	5.96	"0"	"0"	"-"	"-"	"-"	"-"	"-"	"-"	"-"	"-"	NA	0	0	0	1	0	7	"p@rson"	"3556.0"	"4581.0"	NA	3556	4581	0	1	0	"en"	8.17667277194846	8.42989086301344	0	7.22183582528845	7.4265490723973	6.47850964220857	4.77912349311153	0	1	1	1	8.42989086301344	0	8.17667277194846	0.345202201605875	0.198722662901722	-0.556867867608593	0.552975363117909	-3.07035847248969	1.2436498812439	0	"pl_sgDom"
"2917"	"dwazen"	"s14"	1	138	20	"male"	"right"	"noord-brabant"	"no"	"vwo"	"word"	"correct"	1908	"dwaas"	1617	"dwaz@"	5	"nom"	"-"	"yes"	"dwaz"	"0.51"	"dwaz"	"0.51"	6	"2"	2	"dwa"	"yes"	"no"	"underived"	619	"-"	"plur"	"-"	92	0	1	38	3.84	"0"	"0"	"-"	"-"	"-"	"-"	"-"	"-"	"-"	"-"	NA	0	0	0	1	0	4	"dwaz"	"92.0"	"220.0"	NA	36992	427220	0	1	0	"en"	10.5184839845386	12.9650567227233	0	7.55433482372575	7.38894609761844	6.42971947803914	4.93447393313069	0	1	1	1	12.9650567227233	0	10.5184839845386	0.307599226827007	0.149932498732291	-0.401517427589431	5.08814122282778	-3.07035847248969	3.58546109383409	0	"pl_sgDom"
"3106"	"schorem"	"s14"	1	328	20	"male"	"right"	"noord-brabant"	"no"	"vwo"	"word"	"correct"	1533	"schorem"	1226	"sxor@m"	6	"nom"	"-"	"yes"	"sxor@"	"0.5"	"sxor@m"	"0.62"	7	"2"	2	"sxo"	"yes"	"no"	"underived"	638	"-"	"sing"	"-"	38	38	0	2	3.04	"0"	"2"	"-"	"-"	"-"	"-"	"-"	"-"	"-"	"-"	NA	0	0	0	1	0	6	"sxor@m"	"0.0"	"0.0"	NA	38	38	38	1	0	"-"	3.66356164612965	3.66356164612965	0	7.3356339819272	7.11232744471091	6.45990445437753	5.79605775076537	1	0	0	0	3.66356164612965	3.66356164612965	3.66356164612965	0.0309805739194813	0.180117475070688	0.46006639004525	-4.21335385376589	0.593203173639961	-3.2694612445749	3.66356164612965	"sg_plDom"
"3131"	"bussen"	"s14"	1	354	20	"male"	"right"	"noord-brabant"	"no"	"vwo"	"word"	"correct"	1416	"bus"	1962	"b}s@"	4	"nom"	"-"	"yes"	"[end]"	"0.35"	"b}s@"	"0.43"	6	"2"	2	"b}"	"yes"	"no"	"underived"	450	"-"	"plur"	"-"	297	0	102	1	5.6	"0"	"0"	"-"	"-"	"-"	"-"	"-"	"-"	"-"	"-"	NA	0	0	0	1	0	4	"b}s"	"75.0"	"690.0"	NA	75222	1473690	0	1	0	"en"	11.2282123142389	14.2032806961053	0	7.25629723969068	7.58222919427646	6.11146733950268	5.87211778947542	0	1	1	1	14.2032806961053	0	11.2282123142389	0.500882323485031	-0.168319639804168	0.536126428755294	6.32636519620975	-3.07035847248969	4.29518942353431	0	"pl_sgDom"
"3138"	"nieren"	"s14"	1	361	20	"male"	"right"	"noord-brabant"	"no"	"vwo"	"word"	"correct"	1901	"nier"	1732	"nir@"	4	"nom"	"-"	"yes"	"nir"	"0.38"	"nir@"	"0.47"	6	"2"	2	"ni"	"yes"	"no"	"underived"	490	"-"	"plur"	"-"	341	0	17	52	4.57333333333	"0"	"0"	"-"	"-"	"-"	"-"	"-"	"-"	"-"	"-"	NA	0	0	0	1	0	4	"nir"	"341.0"	"118.0"	NA	341	118	0	1	0	"en"	5.8348107370626	4.77912349311153	0	7.55066124310534	7.45760928971561	6.19644412779452	5.89164421182577	0	1	1	1	4.77912349311153	0	5.8348107370626	0.376262418924176	-0.0833428515123265	0.555652851105649	-3.097792006784	-3.07035847248969	-1.09821215364195	0	"pl_sgDom"
"3237"	"porselein"	"s14"	1	461	20	"male"	"right"	"noord-brabant"	"no"	"vwo"	"word"	"correct"	1432	"porselein"	2569	"pOrs@lKn"	8	"nom"	"-"	"no"	"pOrs@"	"0.277"	"pOrs@lKn"	"0.65"	9	"3"	3	"lKn"	"no"	"yes"	"underived"	672	"-"	"sing"	"-"	165	165	7	10	3.68	"0"	"0"	"-"	"-"	"-"	"-"	"-"	"-"	"-"	"-"	NA	0	0	0	0	0	8	"pOrs@lKn"	"165.0"	"165.0"	NA	165	165	165	1	0	"-"	5.11198778835654	5.11198778835654	5.16478597392351	7.26752542782817	7.85166117788927	6.51174532964473	6.13556489108174	1	0	0	0	5.11198778835654	5.11198778835654	5.11198778835654	0.770314307097835	0.231958350337881	0.799573530361616	-2.76492771153899	2.04162931586686	-1.82103510234801	5.11198778835654	"sg_plDom"
"3247"	"termijnen"	"s14"	1	471	20	"male"	"right"	"noord-brabant"	"no"	"vwo"	"word"	"correct"	1250	"termijn"	2402	"tErmKn@"	7	"nom"	"-"	"yes"	"tErmK"	"0.44"	"tErmKn@"	"0.57"	9	"3"	3	"mK"	"no"	"no"	"underived"	592	"-"	"plur"	"-"	148	0	6	367	4.6	"0"	"0"	"-"	"-"	"-"	"-"	"-"	"-"	"-"	"-"	NA	0	0	0	1	0	7	"tErmKn"	"148.0"	"1932.0"	NA	148	1932	0	1	0	"en"	5.00394630594546	7.56682847920833	0	7.13169851046691	7.78447323573647	6.38519439899773	6.15697898558556	0	1	1	1	7.56682847920833	0	5.00394630594546	0.703126364945039	0.105407419690879	0.820987624865433	-0.310087020687201	-3.07035847248969	-1.92907658475909	0	"pl_sgDom"
"3368"	"bussen"	"s15"	1	32	18	"male"	"right"	"noord-brabant"	"no"	"vwo"	"word"	"correct"	1206	"bus"	2305	"b}s@"	4	"nom"	"-"	"yes"	"[end]"	"0.35"	"b}s@"	"0.43"	6	"2"	2	"b}"	"yes"	"no"	"underived"	450	"-"	"plur"	"-"	297	0	102	1	5.6	"0"	"0"	"-"	"-"	"-"	"-"	"-"	"-"	"-"	"-"	NA	0	0	0	1	0	4	"b}s"	"75.0"	"690.0"	NA	75222	1473690	0	1	0	"en"	11.2282123142389	14.2032806961053	0	7.09589322109753	7.743269700829	6.11146733950268	3.49650756146648	0	1	1	1	14.2032806961053	0	11.2282123142389	0.661922830037574	-0.168319639804168	-1.83948379925364	6.32636519620975	-3.07035847248969	4.29518942353431	0	"pl_sgDom"
"3497"	"verkeer"	"s15"	1	162	18	"male"	"right"	"noord-brabant"	"no"	"vwo"	"word"	"correct"	1851	"verkeer"	1590	"v@rker"	6	"nom"	"-"	"yes"	"[end]"	"0.66"	"v@rker"	"0.66"	7	"2"	2	"ker"	"no"	"yes"	"underived"	682	"present"	"sing"	"1,2"	1619	1619	219	255	6	"0"	"0"	"-"	"-"	"-"	"-"	"-"	"-"	"-"	"-"	NA	0	0	0	1	0	6	"v@rker"	"0.0"	"0.0"	NA	161900	161900	161900	1	0	"-"	11.9947403162989	11.9947403162989	12.5923379446107	7.52402141520612	7.37211802833779	6.52649485957079	5.09375020080676	1	0	0	0	11.9947403162989	11.9947403162989	11.9947403162989	0.290771157546357	0.246707880263943	-0.24224115991336	4.11782481640337	8.92438184380922	5.06171742559436	11.9947403162989	"sg_plDom"
"3512"	"nimfen"	"s15"	1	177	18	"male"	"right"	"noord-brabant"	"no"	"vwo"	"word"	"correct"	1742	"nimf"	1858	"nImf@"	5	"nom"	"-"	"yes"	"nImf"	"0.41"	"nImf@"	"0.48"	6	"2"	2	"nIm"	"yes"	"no"	"underived"	504	"-"	"plur"	"-"	20	0	0	0	2.50666666667	"0"	"1"	"-"	"-"	"-"	"-"	"-"	"-"	"-"	"-"	NA	0	0	0	1	0	5	"nImf"	"20.0"	"32.0"	NA	20	32	0	1	0	"en"	3.04452243772342	3.49650756146648	0	7.46336304552002	7.52779398772144	6.22455842927536	5.18178355029209	0	1	1	1	3.49650756146648	0	3.04452243772342	0.446447116930014	-0.0552285500314866	-0.154207810428037	-4.38040793842905	-3.07035847248969	-3.88850045298113	0	"pl_sgDom"
"3534"	"aas"	"s15"	1	199	18	"male"	"right"	"noord-brabant"	"no"	"vwo"	"word"	"correct"	1754	"aas"	1919	"as"	2	"nom"	"-"	"yes"	"[end]"	"0.53"	"as"	"0.53"	3	"1"	1	"as"	"yes"	"yes"	"underived"	546	"present"	"sing"	"1,2"	246	295	15	19	3.61333333333	"0"	"0"	"-"	"-"	"-"	"-"	"-"	"-"	"-"	"-"	NA	0	0	0	1	0	2	"as"	"0.0"	"17.0"	NA	2073900324	2073900324	2073900324	1	0	"-"	21.4526968862932	21.4526968862932	12.0720725716632	7.47022413589997	7.56008046502183	6.30444880242198	5.29831736654804	1	0	0	0	21.4526968862932	21.4526968862932	21.4526968862932	0.478733594230397	0.0246618231151343	-0.0376739941720858	13.5757813863976	18.3823384138035	14.5196739955886	21.4526968862932	"sg_plDom"
"3577"	"engelen"	"s15"	1	243	18	"male"	"right"	"noord-brabant"	"no"	"vwo"	"word"	"correct"	2158	"engel"	2135	"EN@l@"	5	"nom"	"-"	"yes"	"[end]"	"0.29"	"EN@l@"	"0.36"	7	"3"	3	"E"	"yes"	"no"	"underived"	382	"-"	"plur"	"-"	366	0	26	56	4.24	"0"	"0"	"-"	"-"	"-"	"-"	"-"	"-"	"-"	"-"	NA	0	0	0	1	0	5	"EN@l"	"366.0"	"648.0"	NA	366	648	0	1	0	"en"	5.90536184805457	6.47543271670409	0	7.67740043051481	7.66669020008009	5.94803498918065	5.4971682252932	0	1	1	1	6.47543271670409	0	5.90536184805457	0.585343329288656	-0.331751990126201	0.16117686457308	-1.40148278319144	-3.07035847248969	-1.02766104264998	0	"pl_sgDom"
"3579"	"forellen"	"s15"	1	245	18	"male"	"right"	"noord-brabant"	"no"	"vwo"	"word"	"correct"	1798	"forel"	2299	"forEl@"	6	"nom"	"-"	"yes"	"fOrE"	"0.417"	"forEl@"	"0.56"	8	"3"	3	"rE"	"no"	"no"	"underived"	577	"-"	"plur"	"-"	41	0	4	4	3.29333333333	"0"	"0"	"-"	"-"	"-"	"-"	"-"	"-"	"-"	"-"	NA	0	0	0	1	0	6	"forEl"	"41.0"	"91.0"	NA	41	91	0	1	0	"en"	3.73766961828337	4.52178857704904	0	7.49498623395053	7.74066440191724	6.35957386867238	5.50533153593236	0	1	1	1	4.52178857704904	0	3.73766961828337	0.659317531125811	0.0797868893655309	0.16934017521224	-3.35512692284649	-3.07035847248969	-3.19535327242118	0	"pl_sgDom"
"3581"	"termijnen"	"s15"	1	247	18	"male"	"right"	"noord-brabant"	"no"	"vwo"	"word"	"correct"	1612	"termijn"	1977	"tErmKn@"	7	"nom"	"-"	"yes"	"tErmK"	"0.44"	"tErmKn@"	"0.57"	9	"3"	3	"mK"	"no"	"no"	"underived"	592	"-"	"plur"	"-"	148	0	6	367	4.6	"0"	"0"	"-"	"-"	"-"	"-"	"-"	"-"	"-"	"-"	NA	0	0	0	1	0	7	"tErmKn"	"148.0"	"1932.0"	NA	148	1932	0	1	0	"en"	5.00394630594546	7.56682847920833	0	7.38585107812521	7.58984151218266	6.38519439899773	5.51342874616498	0	1	1	1	7.56682847920833	0	5.00394630594546	0.508494641391227	0.105407419690879	0.17743738544486	-0.310087020687201	-3.07035847248969	-1.92907658475909	0	"pl_sgDom"
"3583"	"altaar"	"s15"	1	249	18	"male"	"right"	"noord-brabant"	"no"	"vwo"	"word"	"correct"	1868	"altaar"	2000	"Altar"	5	"nom"	"-"	"yes"	"Alta"	"0.437"	"Alta"	"0.437"	6	"2"	2	"Al"	"yes"	"no"	"underived"	532	"-"	"sing"	"-"	439	529	17	24	3.81333333333	"0"	"0"	"-"	"-"	"-"	"-"	"-"	"-"	"-"	"-"	NA	0	0	0	1	0	4	"Altar"	"439.0"	"439.0"	NA	439	439	439	1	0	"-"	6.08677472691231	6.08677472691231	4.38202663467388	7.53315880745556	7.60140233458373	6.27852142416584	5.52146091786225	1	0	0	0	6.08677472691231	6.08677472691231	6.08677472691231	0.520055463792303	-0.00126555514100257	0.185469557142124	-1.79014077298323	3.01641625442262	-0.846248163792244	6.08677472691231	"sg_plDom"
"3608"	"fontein"	"s15"	1	274	18	"male"	"right"	"noord-brabant"	"no"	"vwo"	"word"	"correct"	1288	"fontein"	1658	"fOntKn"	6	"nom"	"-"	"yes"	"fOntK"	"0.55"	"fOntKn"	"0.67"	7	"2"	2	"tKn"	"no"	"yes"	"underived"	685	"-"	"sing"	"-"	235	386	25	62	4.05333333333	"0"	"0"	"-"	"-"	"-"	"-"	"-"	"-"	"-"	"-"	NA	0	0	0	1	0	6	"fOntKn"	"235.0"	"235.0"	NA	235	235	235	1	0	"-"	5.46383180502561	5.46383180502561	4.77068462446567	7.16162200293919	7.41397029019044	6.53087762772588	5.61677109766657	1	0	0	0	5.46383180502561	5.46383180502561	5.46383180502561	0.332623419399014	0.251090648419038	0.28077973694645	-2.41308369486992	2.39347333253592	-1.46919108567894	5.46383180502561	"sg_plDom"
"3620"	"kalkoenen"	"s15"	1	286	18	"male"	"right"	"noord-brabant"	"no"	"vwo"	"word"	"correct"	2198	"kalkoen"	1787	"kAlkun@"	7	"nom"	"-"	"yes"	"kAlku"	"0.36"	"kAlkun@"	"0.49"	9	"3"	3	"ku"	"no"	"no"	"underived"	507	"-"	"plur"	"-"	62	0	5	24	4.02666666667	"1"	"1"	"-"	"-"	"-"	"-"	"-"	"-"	"-"	"-"	NA	0	0	0	1	0	7	"kAlkun"	"62.0"	"84.0"	NA	62	84	0	1	0	"en"	4.14313472639153	4.44265125649032	0	7.69575799055476	7.48885295573346	6.23048144757848	5.65948221575962	0	1	1	1	4.44265125649032	0	4.14313472639153	0.407506084942029	-0.0493055317283648	0.323490855039499	-3.43426424340521	-3.07035847248969	-2.78988816431302	0	"pl_sgDom"
"3729"	"makrelen"	"s15"	1	396	18	"male"	"right"	"noord-brabant"	"no"	"vwo"	"word"	"correct"	1633	"makreel"	1382	"mAkrel@"	7	"nom"	"-"	"yes"	"mAkr"	"0.3"	"mAkrel@"	"0.66"	8	"3"	3	"kre"	"no"	"no"	"underived"	684	"-"	"plur"	"-"	34	0	0	0	3	"0"	"0"	"-"	"-"	"-"	"-"	"-"	"-"	"-"	"-"	NA	0	0	0	1	0	7	"mAkrel"	"34.0"	"77.0"	NA	34	77	0	1	0	"en"	3.55534806148941	4.35670882668959	0	7.39878627541995	7.23201033166476	6.52941883826223	5.98393628068719	0	1	1	1	4.35670882668959	0	3.55534806148941	0.150663460873329	0.249631858955379	0.647944919967069	-3.52020667320594	-3.07035847248969	-3.37767482921514	0	"pl_sgDom"
"3733"	"dwergen"	"s15"	1	400	18	"male"	"right"	"noord-brabant"	"no"	"vwo"	"word"	"correct"	1226	"dwerg"	1363	"dwErG@"	6	"nom"	"-"	"yes"	"dwE"	"0.287"	"dwErG@"	"0.55"	7	"2"	2	"dwEr"	"yes"	"no"	"underived"	573	"-"	"plur"	"-"	133	0	3	7	3.97333333333	"0"	"0"	"-"	"-"	"-"	"-"	"-"	"-"	"-"	"-"	NA	0	0	0	1	0	6	"dwErG"	"133.0"	"156.0"	NA	133	156	0	1	0	"en"	4.89783979995091	5.05624580534831	0	7.11232744471091	7.21817683840341	6.35262939631957	5.99396142730657	0	1	1	1	5.05624580534831	0	4.89783979995091	0.136829967611978	0.07284241701272	0.657970066586447	-2.82066969454722	-3.07035847248969	-2.03518309075364	0	"pl_sgDom"
"3751"	"soldaten"	"s15"	1	418	18	"male"	"right"	"noord-brabant"	"no"	"vwo"	"word"	"correct"	1469	"soldaat"	1955	"sOldat@"	7	"nom"	"-"	"yes"	"sOlda"	"0.5"	"sOldat@"	"0.7"	8	"3"	3	"da"	"no"	"no"	"underived"	721	"-"	"plur"	"-"	3174	0	140	201	4.54666666667	"0"	"0"	"-"	"-"	"-"	"-"	"-"	"-"	"-"	"-"	NA	0	0	0	1	0	7	"sOldat"	"3174.0"	"1615.0"	NA	43174	1615	0	1	0	"en"	10.6730169030149	7.38770923908104	0	7.29301767977278	7.57865685059476	6.58202513889283	6.03787091992214	0	1	1	1	7.38770923908104	0	10.6730169030149	0.497309979803332	0.302238159585979	0.701879559202015	-0.489206260814491	-3.07035847248969	3.73999401231033	0	"pl_sgDom"
"3917"	"elanden"	"s16"	1	25	20	"female"	"right"	"noord-brabant"	"no"	"vwo"	"word"	"correct"	937	"eland"	1404	"elAnd@"	6	"nom"	"-"	"yes"	"elAnd"	"0.51"	"elAnd"	"0.51"	7	"3"	3	"e"	"yes"	"no"	"underived"	614	"-"	"plur"	"-"	27	0	9	18	2.84	"0"	"0"	"-"	"-"	"-"	"-"	"-"	"-"	"-"	"-"	NA	0	0	0	1	0	5	"elAnd"	"27.0"	"20.0"	NA	27	20	0	1	0	"en"	3.3322045101752	3.04452243772342	0	6.84374994900622	7.24779258176785	6.42162226780652	3.25809653802148	0	1	1	1	3.04452243772342	0	3.3322045101752	0.166445710976416	0.141835288499671	-2.07789482269864	-4.83239306217211	-3.07035847248969	-3.60081838052935	0	"pl_sgDom"
"3958"	"knollen"	"s16"	1	66	20	"female"	"right"	"noord-brabant"	"no"	"vwo"	"word"	"incorrect"	879	"knol"	988	"knOl@"	5	"nom"	"-"	"yes"	"knOl"	"0.33"	"knOl@"	"0.4"	7	"2"	2	"knO"	"yes"	"no"	"underived"	418	"-"	"plur"	"-"	107	0	7	11	3.53333333333	"0"	"0"	"-"	"-"	"-"	"-"	"-"	"-"	"-"	"-"	NA	0	0	0	1	0	5	"knOl"	"107.0"	"73.0"	NA	107	73	0	1	0	"en"	4.68213122712422	4.30406509320417	0	6.77992190747225	6.89669433162271	6.03787091992214	4.20469261939097	0	1	1	1	4.30406509320417	0	4.68213122712422	-0.184652539168717	-0.241916059384709	-1.13129874132916	-3.57285040669136	-3.07035847248969	-2.25089166358033	0	"pl_sgDom"
"3992"	"insekten"	"s16"	1	100	20	"female"	"right"	"noord-brabant"	"no"	"vwo"	"word"	"correct"	881	"insekt"	943	"InsEkt@"	7	"nom"	"-"	"yes"	"InsEkt"	"0.53"	"InsEkt@"	"0.61"	8	"3"	3	"sEk"	"no"	"no"	"underived"	628	"-"	"plur"	"-"	581	0	0	0	4.97333333333	"0"	"0"	"-"	"-"	"-"	"-"	"-"	"-"	"-"	"-"	NA	0	0	0	1	0	7	"InsEkt"	"581.0"	"160.0"	NA	581	160	0	1	0	"en"	6.36647044773144	5.08140436498446	0	6.78219205600679	6.8501261661455	6.44413125670044	4.61512051684126	0	1	1	1	5.08140436498446	0	6.36647044773144	-0.23122070464593	0.164344277393594	-0.720870843878862	-2.79551113491107	-3.07035847248969	-0.566552442973112	0	"pl_sgDom"
"4023"	"mineraal"	"s16"	1	132	20	"female"	"right"	"noord-brabant"	"no"	"vwo"	"word"	"correct"	889	"mineraal"	972	"min@ral"	7	"nom"	"-"	"no"	"min@"	"0.227"	"min@r"	"0.3"	8	"3"	3	"ral"	"no"	"yes"	"underived"	640	"-"	"sing"	"-"	32	380	3	15	3.84	"0"	"0"	"-"	"-"	"-"	"-"	"-"	"-"	"-"	"-"	NA	0	0	0	0	0	5	"min@ral"	"2.0"	"2.0"	NA	230	230	230	1	0	"-"	5.44241771052179	5.44241771052179	11.1882612385875	6.79122146272619	6.880384082186	6.46302945692067	4.89034912822175	1	0	0	0	5.44241771052179	5.44241771052179	5.44241771052179	-0.200962788605425	0.183242477613823	-0.445642232498368	-2.43449778937374	2.37205923803211	-1.49060518018276	5.44241771052179	"sg_plDom"
"4051"	"violen"	"s16"	1	160	20	"female"	"right"	"noord-brabant"	"no"	"vwo"	"word"	"correct"	877	"viool"	1314	"vijol@"	6	"nom"	"-"	"yes"	"[end]"	"0.51"	"vijol@"	"0.6"	6	"3"	2	"jo"	"no"	"no"	"underived"	616	"-"	"plur"	"-"	114	0	5	47	3.98666666667	"0"	"0"	"-"	"-"	"-"	"-"	"-"	"-"	"-"	"-"	NA	0	0	0	1	0	6	"vijol"	"114.0"	"377.0"	NA	114	377	0	1	0	"en"	4.74493212836325	5.93489419561959	0	6.77764659363512	7.18159194461187	6.42486902390539	5.08140436498446	0	1	1	1	5.93489419561959	0	4.74493212836325	0.100245073820435	0.145082044598541	-0.254586995735659	-1.94202130427594	-3.07035847248969	-2.1880907623413	0	"pl_sgDom"
"4069"	"ramsj"	"s16"	1	178	20	"female"	"right"	"noord-brabant"	"no"	"vwo"	"word"	"incorrect"	972	"ramsj"	986	"rAmS"	4	"nom"	"-"	"yes"	"rAmS"	"0.56"	"rAmS"	"0.56"	5	"1"	1	"rAmS"	"yes"	"yes"	"underived"	579	"present"	"sing"	"1,2"	3	3	4	4	1.50666666667	"46"	"49"	"-"	"-"	"-"	"-"	"-"	"-"	"-"	"-"	NA	0	0	0	1	0	4	"rAmS"	"0.0"	"0.0"	NA	3	3	3	1	0	"-"	1.38629436111989	1.38629436111989	0	6.880384082186	6.89467003943348	6.36302810354046	5.18738580584075	1	0	0	0	1.38629436111989	1.38629436111989	1.38629436111989	-0.186676831357948	0.0832411242336182	-0.148605554879367	-6.49062113877564	-1.6840641113698	-5.54672852958466	1.38629436111989	"sg_plDom"
"4087"	"leem"	"s16"	1	196	20	"female"	"right"	"noord-brabant"	"no"	"vwo"	"word"	"correct"	914	"leem"	999	"lem"	3	"nom"	"-"	"yes"	"lem"	"0.4"	"lem"	"0.4"	4	"1"	1	"lem"	"yes"	"yes"	"underived"	424	"present"	"sing"	"1,2"	103	103	129	132	2.76	"1"	"2"	"-"	"-"	"-"	"-"	"-"	"-"	"-"	"-"	NA	0	0	0	1	0	3	"lem"	"0.0"	"0.0"	NA	10300	10300	10300	1	0	"-"	9.23999625688369	9.23999625688369	4.38202663467388	6.81892406527552	6.90775527898214	6.05208916892442	5.28320372873799	1	0	0	0	9.23999625688369	9.23999625688369	9.23999625688369	-0.173591591809293	-0.22769781038243	-0.0527876319821337	1.36308075698816	6.16963778439401	2.30697336617914	9.23999625688369	"sg_plDom"
"4122"	"lijf"	"s16"	1	232	20	"female"	"right"	"noord-brabant"	"no"	"vwo"	"word"	"correct"	920	"lijf"	1077	"lKf"	3	"nom"	"-"	"yes"	"lKv"	"0.57"	"lKf"	"0.57"	4	"1"	1	"lKf"	"yes"	"yes"	"underived"	591	"-"	"sing"	"-"	2182	2591	131	187	5.69333333333	"0"	"0"	"-"	"-"	"-"	"-"	"-"	"-"	"-"	"-"	NA	0	0	0	1	0	3	"lKf"	"2182.0"	"2182.0"	NA	2182	2182	2182	1	0	"-"	7.68845535654994	7.68845535654994	12.3202313434243	6.82546003625531	6.98286275146894	6.38350663488401	5.4510384535657	1	0	0	0	7.68845535654994	7.68845535654994	7.68845535654994	-0.0984841193224879	0.103719655577159	0.115047092845578	-0.188460143345588	4.61809688406026	0.755432465845393	7.68845535654994	"sg_plDom"
"4135"	"wrongel"	"s16"	1	245	20	"female"	"right"	"noord-brabant"	"no"	"vwo"	"word"	"incorrect"	827	"wrongel"	979	"wrON@l"	6	"nom"	"-"	"yes"	"wrON"	"0.39"	"wrON@l"	"0.52"	7	"2"	2	"wrO"	"yes"	"no"	"underived"	539	"present"	"sing"	"1,2"	115	115	1	1	1.82666666667	"24"	"33"	"-"	"-"	"-"	"-"	"-"	"-"	"-"	"-"	NA	0	0	0	1	0	6	"wrON@l"	"0.0"	"0.0"	NA	11500	11500	11500	1	0	"-"	9.35018926709258	9.35018926709258	0	6.71901315438526	6.88755257166462	6.29156913955832	5.50533153593236	1	0	0	0	9.35018926709258	9.35018926709258	9.35018926709258	-0.193794299126813	0.0117821602514736	0.16934017521224	1.47327376719705	6.2798307946029	2.41716637638803	9.35018926709258	"sg_plDom"
"4150"	"matrassen"	"s16"	1	260	20	"female"	"right"	"noord-brabant"	"no"	"vwo"	"word"	"incorrect"	1159	"matras"	909	"mAtrAs@"	7	"nom"	"-"	"yes"	"mAtrA"	"0.35"	"mAtrAs@"	"0.58"	9	"3"	3	"trA"	"no"	"no"	"underived"	605	"-"	"plur"	"-"	120	0	21	108	4.61333333333	"0"	"0"	"-"	"-"	"-"	"-"	"-"	"-"	"-"	"-"	NA	0	0	0	1	0	7	"mAtrAs"	"120.0"	"411.0"	NA	120	411	0	1	0	"en"	4.79579054559674	6.02102334934953	0	7.05617528410041	6.8134445995109	6.40687998606931	5.56452040732269	0	1	1	1	6.02102334934953	0	4.79579054559674	-0.267902271280534	0.127093006762467	0.228529046602572	-1.855892150546	-3.07035847248969	-2.13723234510781	0	"pl_sgDom"
"4151"	"marmotten"	"s16"	1	261	20	"female"	"right"	"noord-brabant"	"no"	"vwo"	"word"	"correct"	883	"marmot"	1159	"mArmOt@"	7	"nom"	"-"	"yes"	"mArmO"	"0.29"	"mArmOt@"	"0.5"	9	"3"	3	"mO"	"no"	"no"	"underived"	521	"-"	"plur"	"-"	14	0	0	3	3.28	"0"	"0"	"-"	"-"	"-"	"-"	"-"	"-"	"-"	"-"	NA	0	0	0	1	0	7	"mArmOt"	"14.0"	"30.0"	NA	14	30	0	1	0	"en"	2.70805020110221	3.43398720448515	0	6.78445706263764	7.05617528410041	6.25766758788264	5.5683445037611	0	1	1	1	3.43398720448515	0	2.70805020110221	-0.0251715866910196	-0.0221193914242077	0.232353143040974	-4.44292829541039	-3.07035847248969	-4.22497268960234	0	"pl_sgDom"
"4173"	"engelen"	"s16"	1	283	20	"female"	"right"	"noord-brabant"	"no"	"vwo"	"word"	"correct"	891	"engel"	1123	"EN@l@"	5	"nom"	"-"	"yes"	"[end]"	"0.29"	"EN@l@"	"0.36"	7	"3"	3	"E"	"yes"	"no"	"underived"	382	"-"	"plur"	"-"	366	0	26	56	4.24	"0"	"0"	"-"	"-"	"-"	"-"	"-"	"-"	"-"	"-"	NA	0	0	0	1	0	5	"EN@l"	"366.0"	"648.0"	NA	366	648	0	1	0	"en"	5.90536184805457	6.47543271670409	0	6.79346613258001	7.02464903045364	5.94803498918065	5.64897423816121	0	1	1	1	6.47543271670409	0	5.90536184805457	-0.0566978403377938	-0.331751990126201	0.312982877441084	-1.40148278319144	-3.07035847248969	-1.02766104264998	0	"pl_sgDom"
"4174"	"azuur"	"s16"	1	284	20	"female"	"right"	"noord-brabant"	"no"	"vwo"	"word"	"correct"	1038	"azuur"	891	"azyr"	4	"nom"	"-"	"yes"	"azy"	"0.377"	"azyr"	"0.53"	5	"2"	2	"zyr"	"no"	"yes"	"underived"	545	"-"	"sing"	"-"	19	19	1	1	2.48	"2"	"5"	"-"	"-"	"-"	"-"	"-"	"-"	"-"	"-"	NA	0	0	0	1	0	4	"azyr"	"19.0"	"19.0"	NA	19	19	19	1	0	"-"	2.99573227355399	2.99573227355399	3.13549421592915	6.94601399109923	6.79346613258001	6.30261897574491	5.65248918026865	1	0	0	0	2.99573227355399	2.99573227355399	2.99573227355399	-0.28788073821142	0.0228319964380583	0.316497819548529	-4.88118322634154	-0.0746261989356949	-3.93729061715056	2.99573227355399	"sg_plDom"
"4178"	"kievieten"	"s16"	1	288	20	"female"	"right"	"noord-brabant"	"no"	"vwo"	"word"	"correct"	1073	"kieviet"	983	"kivit@"	6	"nom"	"-"	"yes"	"kiv"	"0.22"	"kivit@"	"0.52"	9	"3"	3	"ki"	"yes"	"no"	"underived"	538	"-"	"plur"	"-"	0	0	0	0	2.88	"3"	"4"	"-"	"-"	"-"	"-"	"-"	"-"	"-"	"-"	NA	0	0	0	1	0	6	"kivit"	"0.0"	"8.0"	NA	0	8	0	1	0	"en"	0	2.19722457733622	0	6.97914527506881	6.89162589705225	6.289715570909	5.66642668811243	0	1	1	1	2.19722457733622	0	0	-0.189720973739177	0.00992859160215076	0.33043532739231	-5.67969092255931	-3.07035847248969	-6.93302289070455	0	"pl_sgDom"
"4210"	"dwazen"	"s16"	1	320	20	"female"	"right"	"noord-brabant"	"no"	"vwo"	"word"	"correct"	927	"dwaas"	921	"dwaz@"	5	"nom"	"-"	"yes"	"dwaz"	"0.51"	"dwaz"	"0.51"	6	"2"	2	"dwa"	"yes"	"no"	"underived"	619	"-"	"plur"	"-"	92	0	1	38	3.84	"0"	"0"	"-"	"-"	"-"	"-"	"-"	"-"	"-"	"-"	NA	0	0	0	1	0	4	"dwaz"	"92.0"	"220.0"	NA	36992	427220	0	1	0	"en"	10.5184839845386	12.9650567227233	0	6.8330317327862	6.82654522355659	6.42971947803914	5.77144112313002	0	1	1	1	12.9650567227233	0	10.5184839845386	-0.254801647234836	0.149932498732291	0.435449762409894	5.08814122282778	-3.07035847248969	3.58546109383409	0	"pl_sgDom"
"4242"	"bandieten"	"s16"	1	353	20	"female"	"right"	"noord-brabant"	"no"	"vwo"	"word"	"correct"	903	"bandiet"	1046	"bAndit@"	7	"nom"	"-"	"yes"	"bAndi"	"0.34"	"bAndit@"	"0.57"	9	"3"	3	"di"	"no"	"no"	"underived"	586	"-"	"plur"	"-"	116	0	1	3	3.46666666667	"0"	"0"	"-"	"-"	"-"	"-"	"-"	"-"	"-"	"-"	NA	0	0	0	1	0	7	"bAndit"	"116.0"	"45.0"	NA	116	45	0	1	0	"en"	4.76217393479776	3.8286413964891	0	6.80682936039218	6.95368421087054	6.3750248198281	5.86929691313377	0	1	1	1	3.8286413964891	0	4.76217393479776	-0.127662659920893	0.09523784052125	0.533305552413652	-4.04827410340644	-3.07035847248969	-2.17084895590679	0	"pl_sgDom"
"4263"	"rivieren"	"s16"	1	374	20	"female"	"right"	"noord-brabant"	"no"	"vwo"	"word"	"correct"	969	"rivier"	1143	"rivir@"	6	"nom"	"-"	"yes"	"rivi"	"0.497"	"rivir@"	"0.71"	8	"3"	3	"vi"	"no"	"no"	"underived"	727	"-"	"plur"	"-"	521	0	67	301	4.96	"0"	"0"	"-"	"-"	"-"	"-"	"-"	"-"	"-"	"-"	NA	0	0	0	1	0	6	"rivir"	"521.0"	"2174.0"	NA	49521	2174	0	1	0	"en"	10.810172294265	7.68478394352278	0	6.87729607149743	7.04228617193974	6.59030104819669	5.92692602597041	0	1	1	1	7.68478394352278	0	10.810172294265	-0.0390606988516868	0.310514068889839	0.590934665250288	-0.192131556372747	-3.07035847248969	3.8771494035605	0	"pl_sgDom"
"4290"	"klonten"	"s16"	1	401	20	"female"	"right"	"noord-brabant"	"no"	"vwo"	"word"	"correct"	895	"klont"	850	"klOnt@"	6	"nom"	"-"	"yes"	"klOn"	"0.3"	"klOnt@"	"0.48"	7	"2"	2	"klOn"	"yes"	"no"	"underived"	500	"-"	"plur"	"-"	28	0	1	5	3.88	"2"	"2"	"-"	"-"	"-"	"-"	"-"	"-"	"-"	"-"	NA	0	0	0	1	0	6	"klOnt"	"28.0"	"41.0"	NA	28	41	0	1	0	"en"	3.36729582998647	3.73766961828337	0	6.79794041297493	6.74641212857337	6.21660610108486	5.99645208861902	0	1	1	1	3.73766961828337	0	3.36729582998647	-0.334934742218056	-0.0631808782219823	0.660460727898899	-4.13924588161216	-3.07035847248969	-3.56572706071808	0	"pl_sgDom"
"4311"	"kolf"	"s16"	1	422	20	"female"	"right"	"noord-brabant"	"no"	"vwo"	"word"	"correct"	968	"kolf"	830	"kOlf"	4	"nom"	"-"	"yes"	"kOlv"	"0.43"	"kOlf"	"0.43"	4	"1"	1	"kOlf"	"yes"	"yes"	"underived"	450	"present"	"sing"	"1,2"	142	175	6	9	3.17333333333	"3"	"3"	"-"	"-"	"-"	"-"	"-"	"-"	"-"	"-"	NA	0	0	0	1	0	4	"kOlf"	"0.0"	"4.0"	NA	142	142	142	1	0	"-"	4.96284463025991	4.96284463025991	8.11522197256233	6.87626461189077	6.72262979485545	6.11146733950268	6.04737217904628	1	0	0	0	4.96284463025991	4.96284463025991	4.96284463025991	-0.358717075935981	-0.168319639804168	0.711380818326155	-2.91407086963562	1.89248615777022	-1.97017826044464	4.96284463025991	"sg_plDom"
"4335"	"beelden"	"s16"	1	446	20	"female"	"right"	"noord-brabant"	"no"	"vwo"	"word"	"correct"	944	"beeld"	1111	"beld@"	5	"nom"	"-"	"yes"	"bel"	"0.39"	"beld@"	"0.53"	7	"2"	2	"bel"	"yes"	"no"	"underived"	551	"-"	"plur"	"-"	1986	0	254	29	5.30666666667	"0"	"0"	"-"	"-"	"-"	"-"	"-"	"-"	"-"	"-"	NA	0	0	0	1	0	5	"beld"	"1986.0"	"6170.0"	NA	1986	6170	0	1	0	"en"	7.59438124255182	8.72761617832107	0	6.85118492749374	7.01391547481053	6.31354804627709	6.10255859461357	0	1	1	1	8.72761617832107	0	7.59438124255182	-0.0674313959809023	0.0337610669702482	0.766567233893447	0.850700678425536	-3.07035847248969	0.661358351847267	0	"pl_sgDom"
"4392"	"bussen"	"s16"	1	504	20	"female"	"right"	"noord-brabant"	"no"	"vwo"	"word"	"correct"	1203	"bus"	1344	"b}s@"	4	"nom"	"-"	"yes"	"[end]"	"0.35"	"b}s@"	"0.43"	6	"2"	2	"b}"	"yes"	"no"	"underived"	450	"-"	"plur"	"-"	297	0	102	1	5.6	"0"	"0"	"-"	"-"	"-"	"-"	"-"	"-"	"-"	"-"	NA	0	0	0	1	0	4	"b}s"	"75.0"	"690.0"	NA	75222	1473690	0	1	0	"en"	11.2282123142389	14.2032806961053	0	7.09340462586877	7.20414929203594	6.11146733950268	6.22455842927536	0	1	1	1	14.2032806961053	0	11.2282123142389	0.12280242124451	-0.168319639804168	0.888567068555238	6.32636519620975	-3.07035847248969	4.29518942353431	0	"pl_sgDom"
"4405"	"heren"	"s16"	1	517	20	"female"	"right"	"noord-brabant"	"no"	"vwo"	"word"	"correct"	909	"heer"	1061	"her@"	4	"nom"	"-"	"yes"	"[end]"	"0.34"	"her@"	"0.47"	5	"2"	2	"he"	"yes"	"no"	"underived"	492	"-"	"plur"	"-"	3431	0	262	1445	5.72	"0"	"0"	"-"	"-"	"-"	"-"	"-"	"-"	"-"	"-"	NA	0	0	0	1	0	4	"her"	"0.0"	"0.0"	NA	34310	47068310	0	1	0	"en"	10.4432212814493	17.6671105300057	0	6.8134445995109	6.96790920180188	6.20050917404269	6.24997524225948	0	1	1	1	17.6671105300057	0	10.4432212814493	-0.113437668989546	-0.079277805264157	0.913983881539361	9.79019503011014	-3.07035847248969	3.51019839074478	0	"pl_sgDom"
"4467"	"troel"	"s17"	1	19	20	"male"	"right"	"noord-brabant"	"Brabants"	"vwo"	"word"	"incorrect"	1076	"troel"	1138	"trul"	4	"nom"	"-"	"yes"	"trul"	"0.36"	"trul"	"0.36"	5	"1"	1	"trul"	"yes"	"yes"	"underived"	381	"-"	"sing"	"-"	4	6	0	0	2.4	"6"	"10"	"-"	"-"	"-"	"-"	"-"	"-"	"-"	"-"	NA	0	0	0	1	0	4	"trul"	"4.0"	"4.0"	NA	4	4	4	1	0	"-"	1.6094379124341	1.6094379124341	1.09861228866811	6.98193467715639	7.03790596344718	5.94542060860658	2.99573227355399	1	0	0	0	1.6094379124341	1.6094379124341	1.6094379124341	-0.0434409073442481	-0.334366370700272	-2.34025908716613	-6.26747758746143	-1.46092056005559	-5.32358497827045	1.6094379124341	"sg_plDom"
"4492"	"struiken"	"s17"	1	44	20	"male"	"right"	"noord-brabant"	"Brabants"	"vwo"	"word"	"correct"	1394	"struik"	1349	"strLk@"	6	"nom"	"-"	"yes"	"[end]"	"0.56"	"strLk@"	"0.62"	8	"2"	2	"strL"	"yes"	"no"	"underived"	643	"-"	"plur"	"-"	994	0	57	90	4.62666666667	"0"	"0"	"-"	"-"	"-"	"-"	"-"	"-"	"-"	"-"	NA	0	0	0	1	0	6	"strLk"	"994.0"	"220.0"	NA	994	220	0	1	0	"en"	6.90274273715859	5.39816270151775	0	7.24064969425547	7.20785987143248	6.46769872610435	3.80666248977032	0	1	1	1	5.39816270151775	0	6.90274273715859	0.126513000641046	0.187911746797507	-1.5293288709498	-2.47875279837778	-3.07035847248969	-0.0302801535459576	0	"pl_sgDom"
"4545"	"accijnzen"	"s17"	1	97	20	"male"	"right"	"noord-brabant"	"Brabants"	"vwo"	"word"	"correct"	1239	"accijns"	1305	"AksKnz@"	7	"nom"	"-"	"yes"	"AksK"	"0.4"	"AksKnz"	"0.6"	9	"3"	3	"sKn"	"no"	"no"	"underived"	707	"-"	"plur"	"-"	61	0	1	1	3.34666666667	"0"	"0"	"-"	"-"	"-"	"-"	"-"	"-"	"-"	"-"	NA	0	0	0	1	0	6	"AksKnz"	"61.0"	"28.0"	NA	61	28	0	1	0	"en"	4.12713438504509	3.36729582998647	0	7.12286665859908	7.17472430983638	6.56244409369372	4.58496747867057	0	1	1	1	3.36729582998647	0	4.12713438504509	0.0933774390449464	0.282657114386873	-0.75102388204955	-4.50961966990906	-3.07035847248969	-2.80588850565946	0	"pl_sgDom"
"4583"	"schuiten"	"s17"	1	136	20	"male"	"right"	"noord-brabant"	"Brabants"	"vwo"	"word"	"incorrect"	1538	"schuit"	803	"sxLt@"	5	"nom"	"-"	"yes"	"sxLt"	"0.52"	"sxLt@"	"0.59"	8	"2"	2	"sxL"	"yes"	"no"	"underived"	606	"-"	"plur"	"-"	23	0	0	0	3.22666666667	"1"	"2"	"-"	"-"	"-"	"-"	"-"	"-"	"-"	"-"	NA	0	0	0	1	0	5	"sxLt"	"23.0"	"185.0"	NA	23	185	0	1	0	"en"	3.17805383034795	5.2257466737132	0	7.33888813383888	6.68959926917897	6.4085287910595	4.91998092582813	0	1	1	1	5.2257466737132	0	3.17805383034795	-0.391747601612463	0.128741811752652	-0.416010434891997	-2.65116882618233	-3.07035847248969	-3.7549690603566	0	"pl_sgDom"
"4591"	"zwerm"	"s17"	1	144	20	"male"	"right"	"noord-brabant"	"Brabants"	"vwo"	"word"	"correct"	1175	"zwerm"	1146	"zwErm"	5	"nom"	"-"	"yes"	"zwErm"	"0.49"	"zwErm"	"0.49"	5	"1"	1	"zwErm"	"yes"	"yes"	"underived"	507	"present"	"sing"	"1,2"	127	226	9	10	3.82666666667	"0"	"0"	"-"	"-"	"-"	"-"	"-"	"-"	"-"	"-"	NA	0	0	0	1	0	5	"zwErm"	"1.0"	"16.0"	NA	12511	12511	12511	1	0	"-"	9.43444346278509	9.43444346278509	13.827060598698	7.06987412845857	7.04490511712937	6.23048144757848	4.97673374242057	1	0	0	0	9.43444346278509	9.43444346278509	9.43444346278509	-0.0364417536620589	-0.0493055317283648	-0.359257618299548	1.55752796288956	6.36408499029541	2.50142057208054	9.43444346278509	"sg_plDom"
"4596"	"bieten"	"s17"	1	149	20	"male"	"right"	"noord-brabant"	"Brabants"	"vwo"	"word"	"incorrect"	1115	"biet"	2134	"bit@"	4	"nom"	"-"	"yes"	"bit"	"0.29"	"bit@"	"0.38"	6	"2"	2	"bi"	"yes"	"no"	"underived"	398	"-"	"plur"	"-"	86	0	7	15	3.74666666667	"0"	"1"	"-"	"-"	"-"	"-"	"-"	"-"	"-"	"-"	NA	0	0	0	1	0	4	"bit"	"86.0"	"45.0"	NA	864	34515197797745	0	1	0	"en"	6.76272950693188	31.1724208588439	0	7.01750614294126	7.66622192566273	5.98896141688986	5.01063529409626	0	1	1	1	31.1724208588439	0	6.76272950693188	0.584875054871295	-0.290825562416983	-0.325356066623867	23.2955053589484	-3.07035847248969	-0.170293383772671	0	"pl_sgDom"
"4630"	"dwazen"	"s17"	1	183	20	"male"	"right"	"noord-brabant"	"Brabants"	"vwo"	"word"	"correct"	1292	"dwaas"	1247	"dwaz@"	5	"nom"	"-"	"yes"	"dwaz"	"0.51"	"dwaz"	"0.51"	6	"2"	2	"dwa"	"yes"	"no"	"underived"	619	"-"	"plur"	"-"	92	0	1	38	3.84	"0"	"0"	"-"	"-"	"-"	"-"	"-"	"-"	"-"	"-"	NA	0	0	0	1	0	4	"dwaz"	"92.0"	"220.0"	NA	36992	427220	0	1	0	"en"	10.5184839845386	12.9650567227233	0	7.16472037877186	7.12929754892937	6.42971947803914	5.21493575760899	0	1	1	1	12.9650567227233	0	10.5184839845386	0.0479506781379433	0.149932498732291	-0.121055603111136	5.08814122282778	-3.07035847248969	3.58546109383409	0	"pl_sgDom"
"4634"	"kievieten"	"s17"	1	187	20	"male"	"right"	"noord-brabant"	"Brabants"	"vwo"	"word"	"correct"	1280	"kieviet"	1399	"kivit@"	6	"nom"	"-"	"yes"	"kiv"	"0.22"	"kivit@"	"0.52"	9	"3"	3	"ki"	"yes"	"no"	"underived"	538	"-"	"plur"	"-"	0	0	0	0	2.88	"3"	"4"	"-"	"-"	"-"	"-"	"-"	"-"	"-"	"-"	NA	0	0	0	1	0	6	"kivit"	"0.0"	"8.0"	NA	0	8	0	1	0	"en"	0	2.19722457733622	0	7.15539630189673	7.24422751560335	6.289715570909	5.23644196282995	0	1	1	1	2.19722457733622	0	0	0.16288064481192	0.00992859160215076	-0.0995493978901729	-5.67969092255931	-3.07035847248969	-6.93302289070455	0	"pl_sgDom"
"4684"	"smaragden"	"s17"	1	238	20	"male"	"right"	"noord-brabant"	"Brabants"	"vwo"	"word"	"incorrect"	963	"smaragd"	1119	"smarAGd@"	8	"nom"	"-"	"yes"	"smar"	"0.32"	"smarAG"	"0.5"	9	"3"	3	"rAG"	"no"	"no"	"underived"	650	"-"	"plur"	"-"	80	25	2	1	2.69333333333	"0"	"0"	"-"	"-"	"-"	"-"	"-"	"-"	"-"	"-"	NA	0	0	0	1	0	6	"smarAGd"	"25.0"	"21.0"	NA	5525	0	0	1	0	"en"	8.61721950548336	0	0	6.87109129461055	7.02108396428914	6.47850964220857	5.47646355193151	0	1	1	1	0	0	8.61721950548336	-0.0602629065022899	0.198722662901722	0.140472191211389	-7.87691549989553	-3.07035847248969	1.68419661477881	0	"pl_plDom"
"4728"	"grom"	"s17"	1	282	20	"male"	"right"	"noord-brabant"	"Brabants"	"vwo"	"word"	"correct"	992	"grom"	1125	"xrOm"	4	"nom"	"-"	"yes"	"xrOm"	"0.42"	"xrOm"	"0.42"	4	"1"	1	"xrOm"	"yes"	"yes"	"underived"	439	"present"	"sing"	"1,2"	13	10	0	0	3.65333333333	"1"	"1"	"-"	"-"	"-"	"-"	"-"	"-"	"-"	"-"	NA	0	0	0	1	0	4	"xrOm"	"0.0"	"0.0"	NA	9202	9202	9202	1	0	"-"	9.12728479683886	9.12728479683886	9.69664786792845	6.90073066404517	7.02642680869964	6.08677472691231	5.64544689764324	1	0	0	0	9.12728479683886	9.12728479683886	9.12728479683886	-0.054920062091794	-0.19301225239454	0.309455536923116	1.25036929694333	6.05692632434917	2.19426190613431	9.12728479683886	"sg_plDom"
"4736"	"matrassen"	"s17"	1	290	20	"male"	"right"	"noord-brabant"	"Brabants"	"vwo"	"word"	"correct"	1006	"matras"	854	"mAtrAs@"	7	"nom"	"-"	"yes"	"mAtrA"	"0.35"	"mAtrAs@"	"0.58"	9	"3"	3	"trA"	"no"	"no"	"underived"	605	"-"	"plur"	"-"	120	0	21	108	4.61333333333	"0"	"0"	"-"	"-"	"-"	"-"	"-"	"-"	"-"	"-"	NA	0	0	0	1	0	7	"mAtrAs"	"120.0"	"411.0"	NA	120	411	0	1	0	"en"	4.79579054559674	6.02102334934953	0	6.91473089271856	6.75110146893676	6.40687998606931	5.67332326717149	0	1	1	1	6.02102334934953	0	4.79579054559674	-0.33024540185467	0.127093006762467	0.337331906451371	-1.855892150546	-3.07035847248969	-2.13723234510781	0	"pl_sgDom"
"4748"	"tenen"	"s17"	1	302	20	"male"	"right"	"noord-brabant"	"Brabants"	"vwo"	"word"	"correct"	984	"teen"	920	"ten@"	4	"nom"	"-"	"yes"	"ten"	"0.31"	"ten@"	"0.41"	5	"2"	2	"te"	"yes"	"no"	"underived"	432	"-"	"plur"	"-"	975	10	55	142	5.34666666667	"0"	"0"	"-"	"-"	"-"	"-"	"-"	"-"	"-"	"-"	NA	0	0	0	1	0	4	"ten"	"0.0"	"0.0"	NA	965100	3140	0	1	0	"en"	13.7799880380567	8.05229649953865	0	6.89264164117209	6.82546003625531	6.07073772800249	5.71373280550937	0	1	1	1	8.05229649953865	0	13.7799880380567	-0.255886834536123	-0.209049251304357	0.377741444789247	0.175380999643115	-3.07035847248969	6.8469651473522	0	"pl_sgDom"
"4778"	"bibber"	"s17"	1	332	20	"male"	"right"	"noord-brabant"	"Brabants"	"vwo"	"word"	"correct"	1117	"bibber"	821	"bIb@r"	5	"nom"	"-"	"yes"	"bIb"	"0.22"	"bIb"	"0.22"	6	"2"	2	"bI"	"yes"	"no"	"underived"	391	"present"	"sing"	"1,2"	15	9	3	2	3.97333333333	"0"	"0"	"-"	"-"	"-"	"-"	"-"	"-"	"-"	"-"	NA	0	0	0	1	0	3	"bIb@r"	"3.0"	"24.0"	NA	933	933	933	1	0	"-"	6.83947643822884	6.83947643822884	7.79358680337158	7.01929665371504	6.71174039505618	5.97126183979046	5.80814248998044	1	0	0	0	6.83947643822884	6.83947643822884	6.83947643822884	-0.36960647573525	-0.308525139516385	0.472151129260322	-1.03743906166669	3.76911796573916	-0.0935464524757075	6.83947643822884	"sg_plDom"
"4841"	"boeketten"	"s17"	1	396	20	"male"	"right"	"noord-brabant"	"Brabants"	"vwo"	"word"	"correct"	1321	"boeket"	921	"bukEt@"	6	"nom"	"-"	"yes"	"bukE"	"0.28"	"bukEt@"	"0.47"	9	"3"	3	"kE"	"no"	"no"	"underived"	487	"-"	"plur"	"-"	43	0	4	26	4.02666666667	"0"	"0"	"-"	"-"	"-"	"-"	"-"	"-"	"-"	"-"	NA	0	0	0	1	0	6	"bukEt"	"43.0"	"262.0"	NA	43	262118	0	1	0	"en"	3.78418963391826	12.4765538780996	0	7.18690102041163	6.82654522355659	6.19031540585315	5.98393628068719	0	1	1	1	12.4765538780996	0	3.78418963391826	-0.254801647234836	-0.0894715734536993	0.647944919967069	4.59963837820408	-3.07035847248969	-3.14883325678629	0	"pl_sgDom"
"4843"	"mutsen"	"s17"	1	398	20	"male"	"right"	"noord-brabant"	"Brabants"	"vwo"	"word"	"correct"	824	"muts"	1001	"m}ts@"	5	"nom"	"-"	"yes"	"mYt"	"0.23"	"m}ts@"	"0.48"	6	"2"	2	"m}t"	"yes"	"no"	"underived"	497	"-"	"plur"	"-"	54	0	4	57	4.34666666667	"0"	"0"	"-"	"-"	"-"	"-"	"-"	"-"	"-"	"-"	NA	0	0	0	1	0	5	"m}ts"	"54.0"	"245.0"	NA	54	245	0	1	0	"en"	4.00733318523247	5.50533153593236	0	6.71538338633468	6.90975328164481	6.21060007702465	5.98896141688986	0	1	1	1	5.50533153593236	0	4.00733318523247	-0.17159358914662	-0.069186902282194	0.652970056169742	-2.37158396396317	-3.07035847248969	-2.92568970547208	0	"pl_sgDom"
"4896"	"barbaren"	"s17"	1	452	20	"male"	"right"	"noord-brabant"	"Brabants"	"vwo"	"word"	"correct"	960	"barbaar"	908	"bArbar@"	7	"nom"	"-"	"yes"	"bArba"	"0.427"	"bArbar@"	"0.58"	8	"3"	3	"ba"	"no"	"no"	"underived"	601	"-"	"plur"	"-"	175	0	4	5	3.33333333333	"0"	"0"	"-"	"-"	"-"	"-"	"-"	"-"	"-"	"-"	NA	0	0	0	1	0	7	"bArbar"	"175.0"	"53.0"	NA	175	53	0	1	0	"en"	5.17048399503815	3.98898404656427	0	6.86797440897029	6.81234509417748	6.40025744530882	6.11589212548303	0	1	1	1	3.98898404656427	0	5.17048399503815	-0.269001776613951	0.120470466001974	0.779900764762912	-3.88793145333126	-3.07035847248969	-1.7625388956664	0	"pl_sgDom"
"4907"	"rangen"	"s17"	1	463	20	"male"	"right"	"noord-brabant"	"Brabants"	"vwo"	"word"	"correct"	735	"rang"	1724	"rAN@"	4	"nom"	"-"	"yes"	"[end]"	"0.31"	"rAN@"	"0.39"	6	"2"	2	"rA"	"yes"	"no"	"underived"	407	"-"	"plur"	"-"	192	0	6	23	3.78666666667	"3"	"3"	"-"	"-"	"-"	"-"	"-"	"-"	"-"	"-"	NA	0	0	0	1	0	4	"rAN"	"192.0"	"0.0"	NA	192	520	0	1	0	"en"	5.26269018890489	6.25575004175337	0	6.60123011872888	7.45298232946546	6.01126717440416	6.13988455222626	0	1	1	1	6.25575004175337	0	5.26269018890489	0.37163545867403	-0.268519804902685	0.803893191506133	-1.62116545814216	-3.07035847248969	-1.67033270179966	0	"pl_sgDom"
"4910"	"verkeer"	"s17"	1	466	20	"male"	"right"	"noord-brabant"	"Brabants"	"vwo"	"word"	"correct"	1233	"verkeer"	985	"v@rker"	6	"nom"	"-"	"yes"	"[end]"	"0.66"	"v@rker"	"0.66"	7	"2"	2	"ker"	"no"	"yes"	"underived"	682	"present"	"sing"	"1,2"	1619	1619	219	255	6	"0"	"0"	"-"	"-"	"-"	"-"	"-"	"-"	"-"	"-"	NA	0	0	0	1	0	6	"v@rker"	"0.0"	"0.0"	NA	161900	161900	161900	1	0	"-"	11.9947403162989	11.9947403162989	12.5923379446107	7.11801620446533	6.89365635460264	6.52649485957079	6.1463292576689	1	0	0	0	11.9947403162989	11.9947403162989	11.9947403162989	-0.187690516188795	0.246707880263943	0.810337896948775	4.11782481640337	8.92438184380922	5.06171742559436	11.9947403162989	"sg_plDom"
"4928"	"atleten"	"s17"	1	484	20	"male"	"right"	"noord-brabant"	"Brabants"	"vwo"	"word"	"correct"	1156	"atleet"	803	"Atlet@"	6	"nom"	"-"	"yes"	"Atle"	"0.47"	"Atlet@"	"0.69"	7	"3"	3	"le"	"no"	"no"	"underived"	707	"-"	"plur"	"-"	106	0	14	13	4.38666666667	"0"	"0"	"-"	"-"	"-"	"-"	"-"	"-"	"-"	"-"	NA	0	0	0	1	0	6	"Atlet"	"53.0"	"110.0"	NA	75353	110	0	1	0	"en"	11.2299522882462	4.70953020131233	0	7.05358572719368	6.68959926917897	6.56244409369372	6.18414889093748	0	1	1	1	4.70953020131233	0	11.2299522882462	-0.391747601612463	0.282657114386873	0.848157530217361	-3.1673852985832	-3.07035847248969	4.29692939754163	0	"pl_sgDom"
"4932"	"kanteel"	"s17"	1	488	20	"male"	"right"	"noord-brabant"	"Brabants"	"vwo"	"word"	"incorrect"	934	"kanteel"	902	"kAntel"	6	"nom"	"-"	"yes"	"kAnte"	"0.427"	"kAntel"	"0.56"	7	"2"	2	"tel"	"no"	"yes"	"underived"	580	"-"	"sing"	"-"	2	31	0	4	2.22666666667	"11"	"15"	"-"	"-"	"-"	"-"	"-"	"-"	"-"	"-"	NA	0	0	0	1	0	6	"kAntel"	"2.0"	"2.0"	NA	2	2	2	1	0	"-"	1.09861228866811	1.09861228866811	3.40119738166216	6.84054652928869	6.80572255341699	6.36475075685191	6.19236248947487	1	0	0	0	1.09861228866811	1.09861228866811	1.09861228866811	-0.275624317374445	0.084963777545064	0.85637112875475	-6.77830321122742	-1.97174618382158	-5.83441060203644	1.09861228866811	"sg_plDom"
"4952"	"worsten"	"s17"	1	508	20	"male"	"right"	"noord-brabant"	"Brabants"	"vwo"	"word"	"correct"	992	"worst"	1074	"wOrst@"	6	"nom"	"-"	"yes"	"[end]"	"0.34"	"wOrst@"	"0.42"	7	"2"	2	"wOrs"	"yes"	"no"	"underived"	442	"-"	"plur"	"-"	57	0	14	77	4.48	"0"	"0"	"-"	"-"	"-"	"-"	"-"	"-"	"-"	"-"	NA	0	0	0	1	0	6	"wOrst"	"57.0"	"312.0"	NA	57	312	0	1	0	"en"	4.06044301054642	5.74620319054015	0	6.90073066404517	6.98007594056176	6.09356977004514	6.23244801655052	0	1	1	1	5.74620319054015	0	4.06044301054642	-0.101270930229667	-0.186217209261711	0.8964566558304	-2.13071230935538	-3.07035847248969	-2.87257988015813	0	"pl_sgDom"
"4978"	"zaden"	"s17"	1	534	20	"male"	"right"	"noord-brabant"	"Brabants"	"vwo"	"word"	"incorrect"	1198	"zaad"	994	"zad@"	4	"nom"	"-"	"yes"	"[end]"	"0.37"	"zad@"	"0.44"	5	"2"	2	"za"	"yes"	"no"	"underived"	464	"-"	"plur"	"-"	323	0	5	59	4.18666666667	"0"	"0"	"-"	"-"	"-"	"-"	"-"	"-"	"-"	"-"	NA	0	0	0	1	0	4	"zad"	"323.0"	"887.0"	NA	323	887	0	1	0	"en"	5.78074351579233	6.78897174299217	0	7.08924315502751	6.90274273715859	6.14203740558736	6.28226674689601	0	1	1	1	6.78897174299217	0	5.78074351579233	-0.178604133632837	-0.137749573719491	0.946275386175884	-1.08794375690336	-3.07035847248969	-1.15227937491222	0	"pl_sgDom"
"4995"	"beelden"	"s17"	1	551	20	"male"	"right"	"noord-brabant"	"Brabants"	"vwo"	"word"	"correct"	882	"beeld"	763	"beld@"	5	"nom"	"-"	"yes"	"bel"	"0.39"	"beld@"	"0.53"	7	"2"	2	"bel"	"yes"	"no"	"underived"	551	"-"	"plur"	"-"	1986	0	254	29	5.30666666667	"0"	"0"	"-"	"-"	"-"	"-"	"-"	"-"	"-"	"-"	NA	0	0	0	1	0	5	"beld"	"1986.0"	"6170.0"	NA	1986	6170	0	1	0	"en"	7.59438124255182	8.72761617832107	0	6.78332520060396	6.63856778916652	6.31354804627709	6.31354804627709	0	1	1	1	8.72761617832107	0	7.59438124255182	-0.442779081624909	0.0337610669702482	0.977556685556973	0.850700678425536	-3.07035847248969	0.661358351847267	0	"pl_sgDom"
"5074"	"platen"	"s18"	1	70	19	"female"	"right"	"noord-brabant"	"no"	"vwo"	"word"	"correct"	1172	"plaat"	1202	"plat@"	5	"nom"	"-"	"yes"	"[end]"	"0.37"	"plat@"	"0.47"	6	"2"	2	"pla"	"yes"	"no"	"underived"	488	"-"	"plur"	"-"	680	0	60	406	4.97333333333	"0"	"0"	"-"	"-"	"-"	"-"	"-"	"-"	"-"	"-"	NA	0	0	0	1	0	5	"plat"	"680.0"	"978.0"	NA	680	978	0	1	0	"en"	6.52356230614951	6.88653164253051	0	7.06731984865348	7.09257371597468	6.19236248947487	4.26267987704132	0	1	1	1	6.88653164253051	0	6.52356230614951	0.0112268451832485	-0.0874244898319745	-1.07331148367881	-0.990383857365021	-3.07035847248969	-0.409460584555038	0	"pl_sgDom"
"5187"	"matrozen"	"s18"	1	184	19	"female"	"right"	"noord-brabant"	"no"	"vwo"	"word"	"correct"	1276	"matroos"	3886	"mAtroz@"	7	"nom"	"-"	"yes"	"mAtro"	"0.56"	"mAtroz"	"0.64"	8	"3"	3	"tro"	"no"	"no"	"underived"	761	"-"	"plur"	"-"	305	0	3	9	3.58666666667	"0"	"0"	"-"	"-"	"-"	"-"	"-"	"-"	"-"	"-"	NA	0	0	0	1	0	6	"mAtroz"	"305.0"	"289.0"	NA	305	289	0	1	0	"en"	5.72358510195238	5.66988092298052	0	7.15226885603254	8.26539293085222	6.63594655568665	5.22035582507832	0	1	1	1	5.66988092298052	0	5.72358510195238	1.18404606006079	0.3561595763798	-0.115635535641798	-2.20703457691501	-3.07035847248969	-1.20943778875217	0	"pl_sgDom"
"5214"	"riet"	"s18"	1	211	19	"female"	"right"	"noord-brabant"	"no"	"vwo"	"word"	"correct"	959	"riet"	1418	"rit"	3	"nom"	"-"	"yes"	"[end]"	"0.43"	"rit"	"0.43"	4	"1"	1	"rit"	"yes"	"yes"	"underived"	448	"-"	"sing"	"-"	458	613	25	36	4.08	"0"	"0"	"-"	"-"	"-"	"-"	"-"	"-"	"-"	"-"	NA	0	0	0	1	0	3	"rit"	"458.0"	"458.0"	NA	58458	58458	58458	1	0	"-"	10.9760809328056	10.9760809328056	0	6.86693328446188	7.25770767716004	6.10702288774225	5.35658627467201	1	0	0	0	10.9760809328056	10.9760809328056	10.9760809328056	0.176360806368613	-0.172764091564592	0.0205949139518902	3.09916543291009	7.90572246031594	4.04305804210107	10.9760809328056	"sg_plDom"
"5236"	"maten"	"s18"	1	234	19	"female"	"right"	"noord-brabant"	"no"	"vwo"	"word"	"correct"	1086	"maat"	1722	"mat@"	4	"nom"	"-"	"yes"	"[end]"	"0.42"	"mat@"	"0.48"	5	"2"	2	"ma"	"yes"	"no"	"underived"	497	"past"	"plur"	"1,2"	443	0	28	382	4.92	"0"	"0"	"-"	"-"	"-"	"-"	"-"	"-"	"-"	"-"	NA	0	0	0	1	0	4	"mat"	"27.0"	"0.0"	NA	658341627	891162	0	1	0	"en"	20.3052345460457	13.7002826302376	0	6.99117688712121	7.45182223652793	6.21060007702465	5.45958551414416	0	1	1	1	13.7002826302376	0	20.3052345460457	0.3704753657365	-0.069186902282194	0.123594153424037	5.82336713034211	-3.07035847248969	13.3722116553411	0	"pl_sgDom"
"5275"	"smaragden"	"s18"	1	273	19	"female"	"right"	"noord-brabant"	"no"	"vwo"	"word"	"correct"	1099	"smaragd"	2225	"smarAGd@"	8	"nom"	"-"	"yes"	"smar"	"0.32"	"smarAG"	"0.5"	9	"3"	3	"rAG"	"no"	"no"	"underived"	650	"-"	"plur"	"-"	80	25	2	1	2.69333333333	"0"	"0"	"-"	"-"	"-"	"-"	"-"	"-"	"-"	"-"	NA	0	0	0	1	0	6	"smarAGd"	"25.0"	"21.0"	NA	5525	0	0	1	0	"en"	8.61721950548336	0	0	7.00306545878646	7.70796153183549	6.47850964220857	5.61312810638807	0	1	1	1	0	0	8.61721950548336	0.62661466104406	0.198722662901722	0.277136745667948	-7.87691549989553	-3.07035847248969	1.68419661477881	0	"pl_plDom"
"5281"	"uur"	"s18"	1	279	19	"female"	"right"	"noord-brabant"	"no"	"vwo"	"word"	"correct"	1113	"uur"	1571	"yr"	2	"nom"	"-"	"yes"	"[end]"	"0.31"	"yr"	"0.31"	3	"1"	1	"yr"	"yes"	"yes"	"underived"	331	"-"	"sing"	"-"	16087	18025	3968	7736	6.46666666667	"0"	"0"	"-"	"-"	"-"	"-"	"-"	"-"	"-"	"-"	NA	0	0	0	1	0	2	"yr"	"16087.0"	"16087.0"	NA	16087	16087	16087	1	0	"-"	9.68582893145249	9.68582893145249	22.8293008129001	7.01571242048723	7.36010397298915	5.80513496891649	5.63478960316925	1	0	0	0	9.68582893145249	9.68582893145249	9.68582893145249	0.278757102197722	-0.474652010390359	0.298798242449127	1.80891343155696	6.6154704589628	2.75280604074794	9.68582893145249	"sg_plDom"
"5319"	"apen"	"s18"	1	317	19	"female"	"right"	"noord-brabant"	"no"	"vwo"	"word"	"correct"	1616	"aap"	1211	"ap@"	3	"nom"	"-"	"yes"	"[end]"	"0.33"	"ap@"	"0.41"	4	"2"	2	"a"	"yes"	"no"	"underived"	426	"-"	"plur"	"-"	365	0	23	2	4.49333333333	"0"	"0"	"-"	"-"	"-"	"-"	"-"	"-"	"-"	"-"	NA	0	0	0	1	0	3	"ap"	"365.0"	"490.0"	NA	365	490	0	1	0	"en"	5.90263333340137	6.19644412779452	0	7.38832785957711	7.10002716662926	6.05678401322862	5.76205138278018	0	1	1	1	6.19644412779452	0	5.90263333340137	0.0186802958378296	-0.223002966078222	0.426060022060055	-1.68047137210101	-3.07035847248969	-1.03038955730318	0	"pl_sgDom"
"5333"	"aas"	"s18"	1	331	19	"female"	"right"	"noord-brabant"	"no"	"vwo"	"word"	"correct"	812	"aas"	836	"as"	2	"nom"	"-"	"yes"	"[end]"	"0.53"	"as"	"0.53"	3	"1"	1	"as"	"yes"	"yes"	"underived"	546	"present"	"sing"	"1,2"	246	295	15	19	3.61333333333	"0"	"0"	"-"	"-"	"-"	"-"	"-"	"-"	"-"	"-"	NA	0	0	0	1	0	2	"as"	"0.0"	"17.0"	NA	2073900324	2073900324	2073900324	1	0	"-"	21.4526968862932	21.4526968862932	12.0720725716632	6.70073110954781	6.72982407048948	6.30444880242198	5.80513496891649	1	0	0	0	21.4526968862932	21.4526968862932	21.4526968862932	-0.351522800301955	0.0246618231151343	0.469143608196366	13.5757813863976	18.3823384138035	14.5196739955886	21.4526968862932	"sg_plDom"
